# OpenSignals Text File Format. Version 1
# {"8C:F6:81:6C:CD:1C": {"position": 0, "device": "cardiobanplux", "device name": "ECG", "device connection": "BTH8C:F6:81:6C:CD:1C", "sampling rate": 400, "resolution": [16, 16, 16, 16], "firmware version": 1027, "comments": "", "keywords": "", "mode": 0, "sync interval": 2, "date": "2024-1-15", "time": "16:53:51.736", "channels": [1, 2, 3, 4], "sensor": ["ECG", "gACC", "gACC", "gACC"], "label": ["ECG", "ACC_X", "ACC_Y", "ACC_Z"], "column": ["nSeq", "ECG", "ACC_X", "ACC_Y", "ACC_Z"], "special": [{}, {}, {}, {}], "digital IO": [], "convertedValues": 0}}
# EndOfHeader
0	30160	38568	38124	34228	
1	32208	38576	38112	34208	
2	32224	38616	38072	34252	
3	32304	38612	38096	34256	
4	32304	38612	38076	34284	
5	32336	38624	38088	34272	
6	32400	38596	38120	34240	
7	32432	38664	38120	34280	
8	32352	38640	38120	34308	
9	32224	38644	38108	34304	
10	32256	38624	38096	34312	
11	32416	38628	38092	34288	
12	32560	38628	38096	34312	
13	32624	38660	38112	34312	
14	32688	38680	38068	34328	
15	32624	38672	38072	34340	
16	32544	38668	38064	34348	
17	32480	38672	38120	34340	
18	32448	38664	38084	34320	
19	32560	38692	38112	34348	
20	32592	38684	38080	34360	
21	32688	38688	38104	34348	
22	32704	38680	38084	34344	
23	32688	38692	38112	34340	
24	32544	38688	38100	34364	
25	32560	38684	38104	34324	
26	32528	38696	38104	34340	
27	32656	38684	38108	34312	
28	32688	38684	38080	34328	
29	32768	38656	38108	34316	
30	32704	38676	38144	34324	
31	32688	38664	38136	34340	
32	32608	38656	38108	34340	
33	32432	38632	38100	34332	
34	32384	38640	38136	34348	
35	32448	38660	38136	34320	
36	32576	38664	38096	34296	
37	32560	38668	38088	34356	
38	32512	38608	38104	34320	
39	32400	38660	38124	34328	
40	32336	38640	38132	34364	
41	32224	38648	38120	34328	
42	32240	38636	38148	34316	
43	32352	38620	38116	34316	
44	32368	38640	38096	34328	
45	32432	38644	38112	34332	
46	32448	38632	38108	34320	
47	32352	38596	38072	34348	
48	32256	38632	38116	34336	
49	32112	38636	38076	34344	
50	32192	38640	38104	34348	
51	32272	38632	38104	34336	
52	32336	38624	38084	34308	
53	32320	38592	38112	34324	
54	32336	38604	38124	34368	
55	32320	38636	38140	34328	
56	32224	38624	38084	34344	
57	32144	38592	38080	34332	
58	32224	38624	38092	34332	
59	32304	38604	38092	34324	
60	32400	38620	38148	34352	
61	32416	38604	38088	34340	
62	32464	38604	38108	34316	
63	32496	38628	38068	34300	
64	32400	38596	38088	34348	
65	32368	38604	38052	34316	
66	32480	38560	38052	34348	
67	32576	38564	38056	34296	
68	32688	38572	38064	34296	
69	32752	38580	38040	34308	
70	32832	38564	38048	34308	
71	32928	38556	38024	34324	
72	33120	38528	38040	34324	
73	33200	38552	38036	34316	
74	33424	38576	38048	34316	
75	33664	38548	38052	34300	
76	34016	38560	38032	34312	
77	34208	38568	38052	34260	
78	34160	38560	38056	34288	
79	33968	38600	38068	34248	
80	33680	38588	38048	34284	
81	33344	38612	38056	34224	
82	33088	38604	38092	34256	
83	32704	38548	38068	34252	
84	32288	38596	38088	34236	
85	31840	38568	38052	34252	
86	31488	38560	38076	34288	
87	31056	38620	38064	34296	
88	30464	38632	38088	34272	
89	29712	38628	38084	34252	
90	29312	38612	38076	34268	
91	29248	38624	38108	34332	
92	29536	38636	38140	34308	
93	29856	38588	38160	34320	
94	30256	38608	38136	34296	
95	30624	38592	38140	34328	
96	31040	38644	38108	34348	
97	31440	38624	38088	34332	
98	31920	38656	38112	34332	
99	32256	38664	38108	34344	
100	32544	38664	38136	34324	
101	32752	38644	38132	34352	
102	32832	38664	38136	34368	
103	32784	38648	38104	34420	
104	32704	38672	38096	34396	
105	32656	38692	38056	34416	
106	32624	38680	38056	34392	
107	32704	38676	38088	34416	
108	32672	38716	38072	34396	
109	32688	38688	38056	34444	
110	32768	38696	38060	34468	
111	32720	38704	38048	34480	
112	32528	38700	38028	34500	
113	32480	38700	38044	34500	
114	32512	38704	38040	34516	
115	32640	38700	38044	34536	
116	32704	38656	38048	34480	
117	32752	38652	38040	34468	
118	32736	38644	38036	34472	
119	32656	38632	38040	34432	
120	32496	38632	38000	34460	
121	32416	38612	37996	34376	
122	32384	38644	38000	34376	
123	32496	38652	37984	34364	
124	32576	38664	38004	34352	
125	32608	38680	37976	34356	
126	32656	38680	38016	34336	
127	32544	38688	38032	34332	
128	32512	38704	38020	34328	
129	32416	38680	38028	34340	
130	32528	38668	38040	34312	
131	32608	38636	38048	34300	
132	32704	38644	38052	34352	
133	32704	38604	38052	34324	
134	32752	38640	38088	34312	
135	32768	38652	38088	34344	
136	32560	38628	38084	34308	
137	32528	38648	38072	34340	
138	32576	38636	38072	34292	
139	32656	38684	38064	34264	
140	32576	38672	38080	34284	
141	32512	38708	38112	34288	
142	32544	38704	38084	34324	
143	32512	38716	38120	34344	
144	32416	38692	38108	34324	
145	32336	38708	38100	34340	
146	32352	38684	38100	34332	
147	32464	38676	38128	34356	
148	32560	38672	38156	34388	
149	32656	38680	38196	34384	
150	32656	38680	38176	34420	
151	32672	38696	38192	34412	
152	32624	38700	38176	34392	
153	32512	38712	38200	34408	
154	32592	38708	38196	34440	
155	32656	38748	38212	34420	
156	32768	38728	38196	34412	
157	32816	38728	38196	34456	
158	32800	38732	38188	34432	
159	32752	38748	38172	34420	
160	32656	38724	38172	34464	
161	32624	38740	38192	34464	
162	32672	38756	38120	34428	
163	32752	38756	38168	34452	
164	32880	38740	38104	34444	
165	32944	38748	38104	34468	
166	32928	38700	38120	34436	
167	32928	38716	38072	34452	
168	32816	38684	38136	34468	
169	32672	38684	38056	34484	
170	32656	38680	38072	34464	
171	32688	38696	38072	34496	
172	32784	38680	38040	34420	
173	32800	38672	38076	34444	
174	32880	38684	38108	34444	
175	32864	38652	38080	34368	
176	32816	38664	38064	34376	
177	32672	38684	38064	34392	
178	32672	38640	38064	34352	
179	32752	38656	38112	34340	
180	32768	38604	38108	34324	
181	32816	38600	38100	34288	
182	32768	38608	38108	34312	
183	32768	38616	38072	34260	
184	32576	38576	38060	34276	
185	32544	38572	38036	34288	
186	32480	38584	38060	34316	
187	32512	38600	38036	34280	
188	32496	38588	38032	34248	
189	32544	38576	38040	34284	
190	32512	38648	38028	34280	
191	32480	38616	38052	34292	
192	32288	38600	38028	34284	
193	32176	38596	38036	34288	
194	32112	38656	38040	34304	
195	32224	38616	38020	34292	
196	32224	38580	38024	34280	
197	32176	38592	38036	34292	
198	32192	38592	38028	34312	
199	32208	38576	37996	34288	
200	32080	38576	37988	34300	
201	31968	38636	38028	34272	
202	31888	38564	37988	34276	
203	31952	38596	37996	34304	
204	32032	38596	38048	34300	
205	32064	38576	37972	34316	
206	32032	38596	38024	34324	
207	32064	38588	38004	34308	
208	31904	38612	38000	34320	
209	31760	38644	37976	34304	
210	31760	38584	37992	34328	
211	31840	38600	38020	34336	
212	31856	38616	38000	34348	
213	31904	38620	38024	34308	
214	31872	38648	38016	34272	
215	31808	38644	38044	34328	
216	31728	38652	38052	34344	
217	31664	38636	38040	34328	
218	31632	38628	38076	34336	
219	31712	38636	38068	34320	
220	31856	38628	38040	34328	
221	31936	38616	38056	34320	
222	31904	38660	38076	34324	
223	31936	38652	38080	34348	
224	31856	38640	38084	34324	
225	31776	38692	38088	34320	
226	31776	38660	38104	34348	
227	31856	38668	38072	34376	
228	31984	38660	38104	34380	
229	32080	38676	38124	34408	
230	32048	38684	38092	34376	
231	32000	38696	38088	34416	
232	31888	38692	38072	34416	
233	31904	38676	38108	34412	
234	31872	38684	38100	34464	
235	31952	38708	38060	34472	
236	31952	38712	38100	34488	
237	32032	38684	38052	34456	
238	32064	38700	38056	34492	
239	32064	38680	38032	34468	
240	31920	38672	38016	34496	
241	31872	38672	38004	34508	
242	31872	38692	37980	34488	
243	31984	38644	37980	34508	
244	32064	38672	38016	34488	
245	32160	38628	38028	34516	
246	32144	38680	38032	34512	
247	32160	38636	38024	34488	
248	32064	38688	38024	34512	
249	32032	38648	38020	34452	
250	32048	38688	38036	34476	
251	32160	38692	38036	34436	
252	32272	38688	38024	34400	
253	32336	38656	38020	34384	
254	32384	38672	38012	34380	
255	32304	38704	38048	34360	
256	32272	38652	38032	34352	
257	32208	38632	38016	34324	
258	32224	38640	38024	34360	
259	32400	38644	38020	34360	
260	32464	38672	38024	34388	
261	32544	38680	38028	34408	
262	32544	38692	38020	34408	
263	32448	38696	38056	34348	
264	32336	38676	38016	34408	
265	32176	38712	38048	34400	
266	32144	38712	38036	34404	
267	32176	38716	38024	34428	
268	32240	38712	38028	34432	
269	32352	38700	38028	34456	
270	32320	38732	38048	34472	
271	32368	38716	38024	34424	
272	32224	38724	38036	34444	
273	32192	38656	38024	34456	
274	32176	38712	38024	34488	
275	32240	38712	38036	34468	
276	32352	38720	38028	34480	
277	32384	38708	38028	34464	
278	32400	38692	38024	34488	
279	32384	38700	38044	34500	
280	32336	38748	38052	34476	
281	32256	38720	38040	34508	
282	32224	38728	38048	34484	
283	32272	38724	38024	34508	
284	32384	38728	38008	34476	
285	32368	38712	38024	34468	
286	32416	38712	38016	34476	
287	32400	38688	38040	34448	
288	32368	38696	38028	34456	
289	32304	38684	38032	34436	
290	32224	38664	38052	34420	
291	32352	38692	38020	34424	
292	32400	38708	38056	34428	
293	32480	38700	38052	34436	
294	32496	38684	38052	34420	
295	32448	38632	38088	34444	
296	32320	38672	38052	34448	
297	32192	38660	38048	34460	
298	32192	38684	38060	34444	
299	32352	38672	38060	34420	
300	32352	38696	38068	34420	
301	32432	38692	38052	34468	
302	32464	38688	38044	34436	
303	32496	38680	38044	34464	
304	32416	38704	38048	34456	
305	32352	38684	38040	34472	
306	32256	38692	38072	34488	
307	32272	38688	38052	34516	
308	32368	38684	38056	34504	
309	32400	38680	38060	34516	
310	32432	38664	38040	34496	
311	32480	38664	38016	34544	
312	32416	38648	38016	34536	
313	32384	38636	37996	34576	
314	32224	38652	38008	34532	
315	32352	38644	37976	34552	
316	32304	38656	37968	34552	
317	32400	38652	37964	34536	
318	32416	38696	37992	34560	
319	32448	38672	37980	34524	
320	32320	38684	37976	34524	
321	32224	38672	38012	34528	
322	32240	38688	37964	34516	
323	32352	38672	38008	34500	
324	32400	38672	38012	34492	
325	32512	38684	38016	34448	
326	32624	38640	37996	34460	
327	32672	38644	38004	34436	
328	32544	38668	38004	34448	
329	32464	38668	37980	34448	
330	32464	38652	37976	34460	
331	32496	38628	37992	34424	
332	32448	38632	37972	34444	
333	32528	38644	37984	34456	
334	32480	38628	37944	34480	
335	32512	38648	37956	34472	
336	32432	38660	37948	34484	
337	32352	38660	37960	34536	
338	32304	38692	37940	34516	
339	32448	38684	37972	34516	
340	32464	38692	37960	34512	
341	32576	38712	37972	34520	
342	32640	38668	37984	34512	
343	32688	38644	37992	34532	
344	32608	38636	38008	34508	
345	32432	38652	38004	34504	
346	32400	38620	38004	34500	
347	32544	38612	37988	34488	
348	32608	38612	37980	34468	
349	32624	38608	37980	34480	
350	32528	38616	37984	34484	
351	32464	38616	38004	34480	
352	32368	38612	37988	34492	
353	32288	38648	37960	34492	
354	32128	38628	37956	34536	
355	32128	38648	37964	34532	
356	32112	38632	37944	34548	
357	32208	38660	37944	34556	
358	32192	38700	37956	34564	
359	32144	38676	37936	34604	
360	32048	38676	37968	34556	
361	31888	38612	37928	34580	
362	31808	38660	37976	34556	
363	31856	38676	37960	34612	
364	32000	38660	38008	34592	
365	32064	38656	38000	34604	
366	32064	38652	37940	34576	
367	32016	38640	37992	34568	
368	31952	38624	37984	34572	
369	31936	38656	37984	34552	
370	31968	38648	38008	34544	
371	32064	38628	38012	34552	
372	32096	38600	38020	34540	
373	32160	38676	38024	34552	
374	32288	38668	37988	34560	
375	32240	38660	38004	34544	
376	32096	38648	38012	34556	
377	32000	38636	37992	34556	
378	31952	38636	37992	34600	
379	32096	38656	37972	34584	
380	32272	38668	37976	34592	
381	32336	38668	37988	34600	
382	32384	38684	37988	34584	
383	32480	38672	37964	34596	
384	32512	38656	37960	34604	
385	32592	38656	37968	34636	
386	32768	38688	37944	34616	
387	33088	38696	37960	34620	
388	33488	38712	37920	34628	
389	33808	38708	37940	34624	
390	34048	38744	37956	34620	
391	34240	38728	37948	34644	
392	34272	38712	37956	34644	
393	33984	38728	38024	34664	
394	33744	38712	37960	34664	
395	33536	38712	37976	34656	
396	33344	38716	37964	34624	
397	32944	38668	37912	34660	
398	32496	38716	37940	34644	
399	31952	38684	37932	34616	
400	31424	38676	37964	34628	
401	30816	38684	37984	34620	
402	30624	38680	37972	34600	
403	30352	38680	37988	34608	
404	30064	38696	37964	34600	
405	29856	38648	37996	34596	
406	29760	38660	37992	34612	
407	29888	38680	37964	34624	
408	30032	38652	38024	34584	
409	30208	38668	38004	34616	
410	30672	38616	38032	34568	
411	31232	38652	38040	34544	
412	31744	38632	38044	34568	
413	32240	38640	38044	34512	
414	32576	38596	38056	34540	
415	32800	38656	38060	34500	
416	32784	38616	38048	34544	
417	32800	38616	38044	34544	
418	32848	38616	38044	34528	
419	32944	38624	38052	34568	
420	33104	38656	38024	34584	
421	33088	38640	37988	34588	
422	33120	38612	37980	34596	
423	33024	38640	37964	34624	
424	32928	38632	37948	34636	
425	32864	38644	37912	34648	
426	32848	38608	37900	34700	
427	32880	38600	37884	34644	
428	32960	38624	37876	34672	
429	32960	38620	37884	34684	
430	33008	38600	37872	34704	
431	32928	38572	37904	34672	
432	32800	38584	37844	34692	
433	32688	38572	37832	34660	
434	32656	38600	37840	34664	
435	32752	38596	37784	34644	
436	32800	38560	37812	34612	
437	32816	38576	37812	34624	
438	32832	38584	37784	34588	
439	32832	38540	37784	34560	
440	32720	38556	37812	34548	
441	32608	38544	37812	34512	
442	32480	38544	37848	34492	
443	32464	38540	37836	34532	
444	32544	38536	37844	34500	
445	32608	38540	37888	34520	
446	32688	38520	37872	34492	
447	32688	38528	37872	34464	
448	32608	38520	37872	34492	
449	32432	38520	37884	34464	
450	32336	38512	37904	34444	
451	32480	38520	37900	34464	
452	32528	38520	37864	34460	
453	32624	38548	37900	34484	
454	32688	38556	37884	34476	
455	32640	38560	37912	34488	
456	32576	38616	37932	34492	
457	32464	38664	37932	34548	
458	32352	38680	37956	34540	
459	32448	38708	37928	34544	
460	32560	38716	37952	34572	
461	32544	38724	37928	34600	
462	32624	38728	37940	34652	
463	32608	38708	37980	34668	
464	32448	38736	37964	34648	
465	32352	38740	37992	34672	
466	32240	38708	37948	34692	
467	32320	38724	37924	34676	
468	32432	38748	37952	34712	
469	32544	38752	37948	34744	
470	32640	38756	37928	34756	
471	32672	38732	37916	34756	
472	32640	38780	37952	34716	
473	32624	38760	37960	34800	
474	32640	38776	37948	34776	
475	32720	38780	37936	34792	
476	32816	38772	37936	34792	
477	32848	38776	37892	34760	
478	32896	38776	37912	34744	
479	32912	38772	37884	34760	
480	32864	38764	37872	34768	
481	32768	38764	37924	34692	
482	32752	38752	37868	34712	
483	32864	38736	37892	34740	
484	32992	38740	37868	34704	
485	33008	38760	37884	34724	
486	33024	38740	37848	34712	
487	33024	38712	37848	34700	
488	32960	38700	37836	34692	
489	32848	38684	37828	34672	
490	32768	38688	37800	34672	
491	32848	38684	37816	34616	
492	32896	38632	37824	34616	
493	32912	38672	37840	34612	
494	32880	38656	37836	34584	
495	32896	38648	37884	34552	
496	32784	38664	37840	34540	
497	32672	38668	37848	34568	
498	32624	38648	37872	34556	
499	32624	38656	37856	34548	
500	32704	38664	37824	34548	
501	32688	38648	37860	34536	
502	32736	38612	37856	34528	
503	32672	38640	37852	34504	
504	32608	38600	37872	34480	
505	32368	38636	37856	34500	
506	32304	38668	37912	34464	
507	32384	38672	37900	34480	
508	32480	38688	37876	34496	
509	32480	38708	37864	34496	
510	32448	38712	37884	34492	
511	32448	38712	37872	34520	
512	32272	38752	37924	34504	
513	32064	38756	37924	34508	
514	31952	38744	37956	34520	
515	32032	38752	37948	34532	
516	32096	38744	37932	34576	
517	32144	38760	37972	34564	
518	32080	38752	37972	34592	
519	32096	38768	37976	34596	
520	31968	38760	37984	34652	
521	31776	38764	37948	34632	
522	31728	38760	37972	34660	
523	31856	38764	37964	34676	
524	31872	38768	37912	34672	
525	31856	38756	37916	34696	
526	31904	38768	37928	34728	
527	31920	38812	37912	34688	
528	31776	38796	37956	34716	
529	31728	38820	37940	34704	
530	31712	38792	37928	34724	
531	31856	38808	37964	34708	
532	31872	38812	37952	34716	
533	31904	38780	37944	34748	
534	31968	38756	37964	34740	
535	32032	38744	37968	34680	
536	31920	38724	37932	34660	
537	31856	38736	37892	34692	
538	31888	38688	37880	34680	
539	31984	38700	37896	34672	
540	32096	38720	37908	34640	
541	32192	38720	37912	34648	
542	32224	38708	37864	34664	
543	32224	38696	37868	34636	
544	32096	38720	37884	34676	
545	32048	38704	37840	34680	
546	31952	38700	37856	34692	
547	32016	38704	37848	34672	
548	32096	38688	37852	34672	
549	32224	38696	37844	34708	
550	32288	38684	37820	34620	
551	32320	38672	37832	34644	
552	32240	38676	37840	34588	
553	32144	38668	37852	34620	
554	32096	38648	37876	34592	
555	32192	38664	37844	34556	
556	32272	38684	37832	34580	
557	32384	38668	37840	34588	
558	32496	38684	37836	34584	
559	32464	38708	37816	34612	
560	32352	38688	37860	34608	
561	32256	38720	37808	34616	
562	32224	38712	37824	34576	
563	32224	38732	37832	34600	
564	32256	38728	37848	34592	
565	32400	38708	37852	34600	
566	32416	38728	37836	34628	
567	32416	38728	37848	34596	
568	32352	38704	37808	34608	
569	32288	38728	37836	34620	
570	32208	38704	37848	34616	
571	32240	38724	37868	34636	
572	32272	38684	37836	34636	
573	32432	38704	37828	34596	
574	32416	38684	37832	34608	
575	32480	38676	37836	34624	
576	32448	38680	37828	34628	
577	32400	38692	37824	34624	
578	32336	38684	37808	34588	
579	32432	38712	37840	34608	
580	32544	38688	37832	34608	
581	32576	38700	37884	34628	
582	32608	38692	37860	34596	
583	32544	38692	37852	34632	
584	32448	38708	37852	34652	
585	32336	38676	37856	34612	
586	32288	38692	37916	34604	
587	32352	38664	37936	34608	
588	32464	38660	37920	34616	
589	32560	38716	37888	34580	
590	32672	38712	37920	34600	
591	32672	38712	37916	34620	
592	32560	38680	37916	34612	
593	32384	38692	37884	34640	
594	32352	38724	37916	34604	
595	32432	38748	37900	34612	
596	32496	38748	37916	34624	
597	32544	38772	37924	34656	
598	32544	38760	37928	34612	
599	32576	38784	37912	34636	
600	32528	38788	37912	34676	
601	32400	38756	37992	34656	
602	32336	38816	37964	34688	
603	32352	38824	37996	34632	
604	32448	38792	37992	34648	
605	32560	38768	37956	34652	
606	32544	38768	37944	34660	
607	32560	38760	37992	34660	
608	32480	38764	37964	34656	
609	32400	38740	38000	34664	
610	32352	38708	37928	34676	
611	32368	38732	37968	34652	
612	32448	38708	37916	34708	
613	32480	38700	37940	34688	
614	32560	38676	37932	34700	
615	32592	38672	37896	34724	
616	32592	38680	37896	34728	
617	32496	38696	37872	34728	
618	32352	38664	37872	34780	
619	32368	38652	37892	34804	
620	32528	38660	37840	34796	
621	32560	38656	37824	34756	
622	32560	38644	37808	34760	
623	32592	38628	37828	34776	
624	32480	38616	37800	34772	
625	32352	38584	37820	34732	
626	32224	38632	37776	34692	
627	32336	38608	37800	34700	
628	32432	38572	37784	34672	
629	32384	38588	37796	34652	
630	32368	38632	37792	34656	
631	32368	38632	37816	34616	
632	32256	38624	37784	34624	
633	32176	38648	37816	34608	
634	32176	38648	37836	34572	
635	32224	38652	37828	34572	
636	32256	38636	37856	34564	
637	32320	38644	37880	34540	
638	32304	38612	37888	34524	
639	32352	38628	37916	34568	
640	32336	38660	37888	34544	
641	32256	38680	37912	34496	
642	32176	38700	37940	34556	
643	32336	38708	37908	34560	
644	32496	38724	37900	34588	
645	32544	38752	37912	34612	
646	32560	38736	37904	34628	
647	32592	38768	37916	34632	
648	32576	38776	37928	34692	
649	32448	38800	37908	34708	
650	32304	38808	37896	34764	
651	32288	38760	37884	34748	
652	32384	38780	37888	34772	
653	32576	38808	37868	34832	
654	32640	38772	37856	34824	
655	32624	38772	37884	34828	
656	32592	38744	37832	34860	
657	32464	38788	37848	34860	
658	32384	38744	37828	34852	
659	32512	38724	37840	34832	
660	32544	38724	37876	34856	
661	32560	38728	37848	34828	
662	32608	38712	37868	34836	
663	32592	38696	37868	34828	
664	32560	38712	37884	34840	
665	32464	38692	37860	34812	
666	32368	38668	37868	34812	
667	32288	38640	37884	34776	
668	32368	38652	37860	34800	
669	32432	38632	37868	34736	
670	32352	38648	37868	34740	
671	32288	38664	37872	34704	
672	32160	38620	37864	34688	
673	32016	38640	37840	34672	
674	32000	38572	37856	34660	
675	32000	38636	37864	34660	
676	32112	38616	37848	34632	
677	32144	38616	37852	34624	
678	32128	38664	37848	34608	
679	32144	38640	37864	34624	
680	32048	38628	37860	34600	
681	31888	38636	37864	34604	
682	31840	38656	37884	34552	
683	31952	38652	37912	34572	
684	32000	38676	37892	34572	
685	32016	38664	37872	34552	
686	32080	38680	37892	34532	
687	32176	38700	37912	34556	
688	32192	38708	37916	34536	
689	32000	38736	37908	34540	
690	31920	38720	37888	34536	
691	32032	38744	37896	34544	
692	32144	38760	37908	34580	
693	32192	38776	37900	34580	
694	32256	38768	37888	34564	
695	32288	38796	37880	34604	
696	32272	38772	37900	34592	
697	32224	38812	37880	34588	
698	32192	38784	37876	34672	
699	32272	38760	37868	34680	
700	32384	38768	37852	34684	
701	32544	38764	37864	34728	
702	32736	38732	37852	34676	
703	33056	38768	37844	34672	
704	33312	38732	37824	34676	
705	33536	38716	37820	34716	
706	33808	38740	37820	34672	
707	34064	38708	37840	34680	
708	34352	38716	37804	34632	
709	34368	38716	37816	34624	
710	34112	38704	37836	34644	
711	33680	38684	37828	34604	
712	33248	38700	37832	34612	
713	32608	38728	37856	34556	
714	32016	38712	37852	34540	
715	31440	38736	37896	34524	
716	31072	38688	37864	34504	
717	30864	38664	37852	34516	
718	30720	38700	37852	34488	
719	30576	38692	37888	34492	
720	30256	38660	37852	34480	
721	29760	38684	37864	34424	
722	29408	38688	37848	34468	
723	29488	38664	37852	34444	
724	29680	38692	37848	34468	
725	30000	38644	37892	34484	
726	30512	38668	37856	34472	
727	31056	38672	37840	34476	
728	31392	38660	37828	34464	
729	31776	38692	37880	34440	
730	32096	38688	37892	34468	
731	32352	38716	37892	34488	
732	32544	38728	37872	34496	
733	32688	38764	37904	34492	
734	32672	38784	37872	34504	
735	32720	38796	37888	34516	
736	32704	38804	37884	34520	
737	32656	38800	37896	34528	
738	32560	38808	37860	34516	
739	32544	38820	37844	34536	
740	32688	38804	37820	34576	
741	32784	38796	37816	34560	
742	32752	38780	37824	34580	
743	32784	38784	37832	34608	
744	32736	38812	37840	34620	
745	32656	38788	37852	34632	
746	32624	38796	37844	34664	
747	32592	38796	37840	34684	
748	32704	38808	37832	34652	
749	32752	38800	37828	34648	
750	32768	38756	37820	34660	
751	32800	38808	37828	34624	
752	32816	38796	37788	34640	
753	32640	38828	37816	34668	
754	32624	38824	37816	34600	
755	32656	38800	37804	34608	
756	32688	38812	37808	34596	
757	32768	38768	37796	34592	
758	32752	38780	37812	34572	
759	32784	38768	37824	34564	
760	32832	38756	37812	34540	
761	32720	38752	37820	34564	
762	32640	38748	37840	34532	
763	32688	38748	37832	34508	
764	32752	38776	37848	34508	
765	32752	38716	37896	34512	
766	32784	38720	37896	34468	
767	32720	38704	37900	34472	
768	32656	38700	37880	34444	
769	32576	38704	37888	34436	
770	32576	38696	37916	34416	
771	32640	38724	37916	34416	
772	32688	38712	37920	34424	
773	32800	38704	37900	34412	
774	32848	38712	37912	34416	
775	32816	38688	37900	34436	
776	32768	38724	37896	34444	
777	32672	38680	37900	34456	
778	32656	38704	37952	34452	
779	32656	38668	37908	34492	
780	32688	38728	37912	34532	
781	32736	38716	37936	34548	
782	32832	38720	37916	34576	
783	32848	38692	37912	34564	
784	32752	38752	37932	34536	
785	32720	38712	37908	34596	
786	32688	38740	37888	34612	
787	32704	38760	37908	34612	
788	32816	38740	37908	34612	
789	32848	38780	37912	34612	
790	32880	38764	37900	34640	
791	32928	38780	37912	34652	
792	32944	38764	37864	34620	
793	32880	38764	37920	34648	
794	32704	38768	37864	34660	
795	32816	38796	37888	34612	
796	32864	38768	37884	34628	
797	32864	38764	37924	34632	
798	32880	38768	37940	34640	
799	32960	38756	37916	34596	
800	32912	38752	37948	34592	
801	32896	38748	37912	34564	
802	32832	38756	37928	34556	
803	32848	38744	37920	34568	
804	32928	38748	37920	34548	
805	33040	38744	37920	34516	
806	33024	38728	37932	34532	
807	33056	38748	37908	34512	
808	33008	38724	37924	34504	
809	32928	38752	37872	34516	
810	32864	38752	37888	34524	
811	32800	38728	37872	34504	
812	32784	38740	37900	34516	
813	32864	38768	37900	34520	
814	32896	38740	37912	34504	
815	32912	38760	37916	34528	
816	32832	38780	37908	34524	
817	32624	38780	37940	34516	
818	32544	38772	37896	34508	
819	32544	38772	37960	34552	
820	32608	38800	37928	34516	
821	32608	38796	37896	34548	
822	32576	38800	37888	34560	
823	32512	38776	37888	34564	
824	32480	38772	37868	34528	
825	32368	38764	37920	34584	
826	32272	38764	37884	34556	
827	32176	38744	37848	34576	
828	32144	38744	37868	34556	
829	32160	38740	37876	34532	
830	32224	38744	37860	34560	
831	32176	38764	37836	34556	
832	32096	38740	37836	34560	
833	31968	38724	37852	34572	
834	31824	38696	37824	34556	
835	31920	38720	37832	34520	
836	31936	38712	37844	34508	
837	31968	38724	37836	34540	
838	31952	38720	37812	34512	
839	31952	38728	37844	34504	
840	31840	38708	37860	34484	
841	31728	38700	37864	34480	
842	31648	38708	37852	34432	
843	31648	38688	37876	34456	
844	31696	38692	37856	34444	
845	31680	38708	37892	34464	
846	31744	38732	37880	34444	
847	31744	38752	37912	34440	
848	31712	38732	37924	34456	
849	31616	38716	37900	34456	
850	31520	38736	37904	34468	
851	31584	38736	37932	34468	
852	31680	38740	37924	34500	
853	31712	38716	37932	34492	
854	31728	38752	37892	34476	
855	31776	38720	37932	34496	
856	31728	38772	37904	34504	
857	31648	38780	37892	34516	
858	31568	38788	37892	34532	
859	31632	38760	37900	34556	
860	31744	38760	37908	34552	
861	31872	38800	37872	34568	
862	31952	38804	37872	34564	
863	31968	38780	37896	34584	
864	31952	38788	37856	34584	
865	31904	38756	37860	34576	
866	31904	38764	37860	34564	
867	31840	38772	37872	34576	
868	32032	38760	37864	34560	
869	32032	38776	37864	34568	
870	32016	38788	37868	34556	
871	32128	38808	37876	34536	
872	32128	38780	37892	34500	
873	32032	38748	37892	34520	
874	32000	38772	37896	34540	
875	31952	38748	37916	34516	
876	32032	38756	37900	34492	
877	32048	38768	37892	34500	
878	32192	38748	37916	34480	
879	32208	38724	37916	34508	
880	32208	38728	37908	34492	
881	32144	38700	37908	34500	
882	32016	38688	37908	34508	
883	32048	38692	37912	34520	
884	32192	38704	37908	34492	
885	32272	38700	37900	34496	
886	32352	38688	37884	34484	
887	32320	38716	37864	34460	
888	32352	38744	37848	34456	
889	32272	38740	37884	34452	
890	32224	38732	37896	34444	
891	32192	38752	37884	34468	
892	32288	38740	37872	34468	
893	32336	38712	37888	34456	
894	32352	38720	37880	34488	
895	32368	38744	37908	34512	
896	32272	38728	37924	34484	
897	32240	38748	37928	34476	
898	32272	38756	37908	34488	
899	32320	38744	37940	34476	
900	32352	38752	37948	34472	
901	32480	38760	37916	34468	
902	32576	38756	37984	34456	
903	32544	38768	37952	34424	
904	32512	38784	37976	34452	
905	32416	38808	37988	34452	
906	32352	38812	37948	34472	
907	32304	38768	37932	34436	
908	32384	38780	37992	34468	
909	32592	38796	37996	34488	
910	32704	38776	37980	34492	
911	32656	38788	37976	34476	
912	32576	38776	37996	34512	
913	32432	38744	37964	34504	
914	32320	38756	38008	34516	
915	32320	38740	37996	34500	
916	32336	38764	37992	34496	
917	32432	38752	37964	34492	
918	32496	38732	37972	34512	
919	32496	38712	37980	34540	
920	32448	38704	37980	34536	
921	32320	38712	37968	34504	
922	32208	38728	37956	34496	
923	32176	38700	37928	34540	
924	32240	38708	37932	34528	
925	32336	38696	37936	34536	
926	32288	38676	37904	34532	
927	32336	38676	37908	34520	
928	32336	38660	37908	34492	
929	32224	38680	37912	34516	
930	32160	38660	37892	34480	
931	32224	38680	37884	34524	
932	32336	38692	37892	34500	
933	32368	38684	37864	34456	
934	32336	38704	37872	34484	
935	32400	38684	37856	34488	
936	32384	38720	37848	34512	
937	32256	38732	37848	34508	
938	32080	38748	37832	34500	
939	32032	38752	37804	34496	
940	32160	38752	37860	34508	
941	32224	38752	37816	34496	
942	32256	38752	37828	34524	
943	32256	38744	37832	34532	
944	32256	38752	37840	34500	
945	32144	38748	37836	34528	
946	32128	38744	37832	34492	
947	32160	38752	37824	34532	
948	32304	38748	37844	34512	
949	32496	38752	37824	34504	
950	32512	38760	37840	34496	
951	32560	38748	37844	34520	
952	32496	38732	37848	34504	
953	32336	38744	37836	34504	
954	32256	38720	37848	34524	
955	32240	38756	37856	34496	
956	32288	38744	37880	34512	
957	32304	38740	37904	34512	
958	32384	38736	37880	34524	
959	32400	38704	37928	34532	
960	32400	38692	37892	34556	
961	32400	38708	37932	34520	
962	32288	38720	37908	34556	
963	32176	38688	37916	34528	
964	32208	38692	37924	34556	
965	32384	38684	37944	34512	
966	32416	38700	37936	34528	
967	32432	38696	37912	34528	
968	32352	38712	37972	34532	
969	32224	38716	37948	34520	
970	32176	38696	37976	34496	
971	32192	38692	37968	34536	
972	32352	38708	37972	34524	
973	32512	38692	37972	34488	
974	32608	38712	37964	34496	
975	32720	38684	37976	34504	
976	32704	38700	38012	34472	
977	32592	38688	37988	34472	
978	32496	38696	37988	34500	
979	32496	38708	38020	34464	
980	32560	38676	37984	34484	
981	32672	38692	38008	34508	
982	32672	38700	38008	34492	
983	32704	38720	38012	34468	
984	32592	38696	38016	34476	
985	32464	38728	38004	34448	
986	32320	38752	38008	34452	
987	32288	38744	37976	34464	
988	32384	38748	37988	34440	
989	32432	38720	37996	34460	
990	32496	38752	37996	34476	
991	32432	38756	37952	34496	
992	32464	38748	37968	34492	
993	32384	38776	37948	34488	
994	32240	38780	37968	34496	
995	32256	38768	37948	34516	
996	32208	38788	37952	34536	
997	32224	38780	37948	34528	
998	32272	38792	37944	34516	
999	32224	38808	37904	34500	
1000	32192	38796	37884	34524	
1001	32000	38796	37896	34520	
1002	31952	38764	37908	34508	
1003	31936	38796	37912	34476	
1004	32048	38784	37920	34492	
1005	32080	38776	37924	34456	
1006	32128	38772	37920	34464	
1007	32224	38788	37904	34452	
1008	32208	38784	37964	34420	
1009	32048	38776	37952	34440	
1010	31936	38756	37928	34392	
1011	32000	38760	37944	34388	
1012	32096	38752	37956	34396	
1013	32224	38744	37952	34416	
1014	32224	38736	37976	34404	
1015	32240	38716	37944	34416	
1016	32304	38736	37936	34416	
1017	32320	38760	37932	34412	
1018	32256	38752	37988	34416	
1019	32256	38764	37968	34396	
1020	32352	38732	37932	34436	
1021	32384	38764	37940	34492	
1022	32368	38740	37936	34448	
1023	32416	38752	37916	34476	
1024	32432	38732	37956	34472	
1025	32288	38752	37944	34460	
1026	32128	38760	37924	34488	
1027	32112	38784	37960	34508	
1028	32160	38780	37960	34476	
1029	32336	38768	37940	34508	
1030	32544	38760	37940	34488	
1031	32656	38760	37924	34476	
1032	32912	38764	37896	34504	
1033	33120	38760	37936	34504	
1034	33280	38756	37900	34500	
1035	33568	38760	37932	34492	
1036	33968	38760	37904	34496	
1037	34336	38744	37904	34500	
1038	34544	38756	37916	34528	
1039	34416	38732	37976	34512	
1040	34096	38744	37960	34548	
1041	33680	38720	37936	34544	
1042	33072	38736	37940	34508	
1043	32416	38752	37932	34520	
1044	31840	38744	37932	34516	
1045	31456	38724	37932	34468	
1046	31088	38716	37964	34512	
1047	30880	38732	37912	34540	
1048	30736	38724	37920	34496	
1049	30400	38740	37952	34512	
1050	29888	38724	37980	34472	
1051	29568	38728	37956	34456	
1052	29536	38696	37964	34460	
1053	29728	38684	37960	34440	
1054	30128	38700	37956	34420	
1055	30608	38680	37996	34452	
1056	31136	38684	37948	34416	
1057	31568	38680	37984	34444	
1058	31936	38664	38008	34408	
1059	32368	38696	38008	34440	
1060	32640	38696	38000	34384	
1061	32880	38688	38016	34396	
1062	33008	38712	37984	34408	
1063	33040	38704	38024	34392	
1064	33072	38744	37988	34420	
1065	33008	38756	38028	34360	
1066	32880	38748	38008	34400	
1067	32848	38744	37976	34428	
1068	32912	38756	37952	34448	
1069	32960	38752	37924	34472	
1070	32976	38740	37904	34504	
1071	32976	38724	37896	34520	
1072	32960	38740	37860	34560	
1073	32784	38740	37792	34572	
1074	32672	38720	37812	34588	
1075	32720	38748	37796	34616	
1076	32768	38736	37780	34676	
1077	32816	38768	37760	34676	
1078	32832	38756	37776	34692	
1079	32816	38728	37748	34724	
1080	32816	38744	37732	34732	
1081	32672	38736	37700	34696	
1082	32560	38740	37684	34712	
1083	32528	38740	37676	34696	
1084	32592	38736	37676	34644	
1085	32704	38736	37648	34640	
1086	32640	38744	37664	34644	
1087	32704	38728	37692	34596	
1088	32688	38724	37700	34580	
1089	32656	38704	37724	34564	
1090	32576	38720	37720	34552	
1091	32608	38728	37760	34528	
1092	32752	38684	37816	34524	
1093	32768	38644	37804	34528	
1094	32912	38620	37808	34476	
1095	32832	38660	37828	34476	
1096	32976	38640	37856	34492	
1097	32832	38620	37852	34468	
1098	32656	38632	37860	34444	
1099	32608	38644	37880	34420	
1100	32640	38636	37880	34400	
1101	32784	38656	37912	34420	
1102	32800	38696	37924	34372	
1103	32896	38680	37904	34344	
1104	32976	38720	37912	34340	
1105	32896	38708	37944	34352	
1106	32848	38712	37996	34356	
1107	32752	38744	37988	34368	
1108	32816	38740	38024	34340	
1109	32800	38740	38032	34356	
1110	32832	38736	38032	34368	
1111	32880	38744	38100	34372	
1112	32880	38768	38108	34388	
1113	32848	38776	38140	34360	
1114	32672	38784	38176	34344	
1115	32752	38804	38160	34420	
1116	32928	38796	38176	34420	
1117	33056	38808	38204	34440	
1118	33072	38836	38220	34440	
1119	33024	38824	38220	34472	
1120	33008	38832	38220	34492	
1121	32912	38820	38228	34532	
1122	32768	38860	38200	34508	
1123	32672	38848	38152	34532	
1124	32800	38828	38172	34588	
1125	32960	38840	38164	34596	
1126	32992	38816	38128	34620	
1127	32992	38796	38128	34640	
1128	33008	38828	38100	34668	
1129	32912	38796	38084	34680	
1130	32784	38780	38076	34684	
1131	32784	38784	38072	34668	
1132	32832	38772	38076	34664	
1133	32928	38740	38068	34692	
1134	32992	38732	38048	34660	
1135	32976	38708	38056	34652	
1136	33008	38728	38012	34628	
1137	32896	38712	37976	34580	
1138	32784	38700	37984	34592	
1139	32768	38676	37924	34580	
1140	32800	38672	37956	34528	
1141	32896	38656	37912	34512	
1142	32912	38640	37936	34504	
1143	32864	38612	37876	34500	
1144	32816	38620	37900	34436	
1145	32800	38604	37876	34408	
1146	32608	38628	37904	34396	
1147	32480	38596	37880	34384	
1148	32544	38620	37900	34348	
1149	32592	38644	37904	34312	
1150	32560	38604	37896	34304	
1151	32560	38628	37940	34276	
1152	32448	38580	37932	34284	
1153	32336	38604	37924	34260	
1154	32096	38600	37924	34264	
1155	32080	38588	37944	34272	
1156	32048	38576	37936	34256	
1157	32064	38572	37944	34284	
1158	32112	38544	37948	34308	
1159	32064	38620	37952	34272	
1160	32016	38588	37928	34316	
1161	31888	38612	37980	34304	
1162	31728	38620	37956	34320	
1163	31696	38616	37960	34356	
1164	31728	38632	37984	34364	
1165	31712	38664	37960	34408	
1166	31744	38668	37988	34448	
1167	31776	38652	37992	34448	
1168	31712	38660	38016	34488	
1169	31600	38660	37980	34480	
1170	31376	38708	37932	34488	
1171	31376	38696	37912	34500	
1172	31408	38676	37964	34476	
1173	31344	38672	37932	34484	
1174	31488	38688	37972	34500	
1175	31504	38680	37960	34520	
1176	31552	38684	37944	34540	
1177	31456	38696	37928	34544	
1178	31440	38696	37956	34528	
1179	31328	38688	37940	34576	
1180	31408	38712	37920	34576	
1181	31536	38708	37980	34580	
1182	31584	38708	37944	34576	
1183	31568	38720	37968	34588	
1184	31568	38700	37932	34564	
1185	31488	38716	37952	34612	
1186	31424	38688	37944	34576	
1187	31472	38672	37928	34592	
1188	31552	38672	37924	34544	
1189	31584	38640	37924	34584	
1190	31648	38632	37940	34568	
1191	31744	38660	37896	34532	
1192	31808	38640	37920	34528	
1193	31760	38640	37900	34504	
1194	31696	38632	37916	34484	
1195	31632	38660	37916	34508	
1196	31744	38648	37908	34512	
1197	31744	38664	37904	34520	
1198	31856	38660	37884	34520	
1199	31872	38660	37924	34512	
1200	31856	38688	37904	34520	
1201	31872	38692	37892	34504	
1202	31712	38696	37936	34520	
1203	31696	38680	37948	34492	
1204	31792	38684	37928	34496	
1205	31808	38680	37936	34516	
1206	31824	38684	37952	34464	
1207	31888	38668	37932	34496	
1208	31872	38672	37912	34480	
1209	31856	38660	37952	34492	
1210	31824	38684	37924	34440	
1211	31808	38672	37908	34484	
1212	31824	38680	37912	34500	
1213	31904	38668	37916	34484	
1214	31920	38692	37940	34472	
1215	31952	38648	37924	34488	
1216	32096	38684	37952	34476	
1217	32080	38692	37948	34472	
1218	32016	38708	37944	34456	
1219	32032	38708	38000	34444	
1220	32144	38720	38020	34436	
1221	32288	38736	38012	34432	
1222	32336	38748	38000	34460	
1223	32368	38744	38012	34460	
1224	32336	38736	37984	34416	
1225	32304	38764	38020	34428	
1226	32224	38752	37996	34440	
1227	32176	38732	38012	34460	
1228	32208	38744	38000	34480	
1229	32160	38744	38000	34444	
1230	32192	38728	38028	34460	
1231	32208	38728	38016	34432	
1232	32320	38712	38096	34460	
1233	32288	38716	38060	34448	
1234	32176	38704	38068	34456	
1235	32224	38756	38084	34452	
1236	32336	38740	38092	34496	
1237	32480	38760	38092	34480	
1238	32464	38760	38156	34476	
1239	32496	38764	38056	34492	
1240	32480	38760	38076	34504	
1241	32384	38748	38064	34508	
1242	32400	38756	38048	34496	
1243	32352	38780	38056	34528	
1244	32432	38760	38052	34552	
1245	32576	38752	38032	34584	
1246	32608	38764	38036	34576	
1247	32560	38760	38036	34544	
1248	32576	38748	38028	34588	
1249	32528	38764	38036	34640	
1250	32304	38752	38012	34616	
1251	32192	38748	38020	34620	
1252	32336	38760	37996	34612	
1253	32480	38728	37996	34616	
1254	32528	38724	37968	34576	
1255	32448	38728	37976	34580	
1256	32528	38720	37952	34588	
1257	32416	38716	37956	34560	
1258	32288	38708	37940	34564	
1259	32256	38708	37928	34536	
1260	32352	38724	37924	34492	
1261	32400	38728	37960	34492	
1262	32448	38692	37964	34456	
1263	32496	38712	37932	34460	
1264	32512	38684	37944	34448	
1265	32496	38712	37948	34432	
1266	32352	38672	37992	34424	
1267	32368	38680	37944	34384	
1268	32432	38680	37956	34392	
1269	32480	38668	37980	34392	
1270	32576	38656	37948	34364	
1271	32528	38692	37976	34412	
1272	32512	38672	38008	34396	
1273	32416	38664	37952	34400	
1274	32336	38684	37964	34416	
1275	32304	38704	37964	34412	
1276	32384	38680	37928	34424	
1277	32480	38696	37936	34460	
1278	32496	38660	37972	34452	
1279	32560	38684	37920	34456	
1280	32640	38696	37920	34476	
1281	32512	38656	37920	34480	
1282	32384	38676	37872	34504	
1283	32304	38672	37932	34504	
1284	32352	38660	37932	34500	
1285	32448	38652	37936	34504	
1286	32480	38692	37964	34508	
1287	32544	38692	37972	34480	
1288	32528	38704	37996	34464	
1289	32496	38680	37960	34460	
1290	32416	38672	37944	34492	
1291	32416	38688	37988	34460	
1292	32384	38692	37988	34472	
1293	32480	38696	38012	34484	
1294	32560	38668	38004	34476	
1295	32592	38684	37980	34480	
1296	32608	38656	37996	34468	
1297	32528	38640	37968	34496	
1298	32384	38660	37984	34508	
1299	32336	38660	37976	34496	
1300	32416	38696	38004	34508	
1301	32384	38668	37984	34508	
1302	32560	38664	37980	34476	
1303	32512	38680	37916	34488	
1304	32544	38672	37956	34480	
1305	32480	38696	37916	34468	
1306	32384	38652	37924	34484	
1307	32256	38628	37920	34472	
1308	32256	38676	37932	34436	
1309	32368	38652	37952	34436	
1310	32432	38652	37948	34448	
1311	32432	38612	37956	34428	
1312	32432	38632	37928	34436	
1313	32416	38656	37924	34436	
1314	32400	38656	37924	34452	
1315	32192	38640	37928	34436	
1316	32224	38644	37912	34432	
1317	32368	38668	37892	34420	
1318	32480	38648	37932	34412	
1319	32496	38648	37924	34440	
1320	32528	38656	37940	34416	
1321	32512	38676	37948	34412	
1322	32400	38680	37912	34448	
1323	32416	38644	37920	34400	
1324	32576	38676	37932	34380	
1325	32688	38680	37940	34432	
1326	32816	38652	37956	34416	
1327	32896	38684	37972	34392	
1328	32832	38680	37996	34420	
1329	32768	38680	38016	34428	
1330	32640	38672	38016	34400	
1331	32576	38700	38028	34444	
1332	32544	38672	38008	34428	
1333	32704	38736	38024	34472	
1334	32784	38692	38012	34488	
1335	32880	38700	38004	34476	
1336	32768	38720	38024	34492	
1337	32640	38712	38000	34456	
1338	32544	38688	38004	34528	
1339	32560	38708	38012	34544	
1340	32624	38712	37996	34512	
1341	32688	38700	38008	34520	
1342	32688	38704	37976	34536	
1343	32736	38724	38008	34528	
1344	32816	38716	38008	34540	
1345	32688	38708	38028	34508	
1346	32656	38736	38008	34524	
1347	32448	38704	38024	34508	
1348	32448	38708	38016	34492	
1349	32448	38708	38008	34488	
1350	32448	38712	38008	34488	
1351	32432	38676	38016	34440	
1352	32448	38700	38040	34448	
1353	32400	38712	38020	34476	
1354	32224	38708	38020	34456	
1355	32160	38696	38056	34420	
1356	32160	38708	38028	34432	
1357	32176	38688	38048	34424	
1358	32288	38704	38024	34424	
1359	32320	38676	38048	34440	
1360	32400	38704	38028	34440	
1361	32288	38688	38032	34436	
1362	32128	38712	38032	34472	
1363	32032	38696	38028	34480	
1364	32032	38708	38028	34460	
1365	32112	38692	38028	34460	
1366	32304	38716	38008	34472	
1367	32432	38708	37992	34464	
1368	32368	38740	38008	34464	
1369	32384	38692	38016	34468	
1370	32288	38704	38004	34456	
1371	32192	38700	37988	34480	
1372	32192	38724	38008	34528	
1373	32304	38668	37988	34456	
1374	32352	38736	38024	34472	
1375	32416	38708	38012	34492	
1376	32400	38724	38024	34472	
1377	32384	38724	38012	34448	
1378	32384	38712	38032	34444	
1379	32352	38724	38016	34448	
1380	32448	38740	38016	34468	
1381	32576	38724	38004	34472	
1382	32688	38732	37976	34472	
1383	32832	38732	38004	34500	
1384	33104	38736	37960	34476	
1385	33360	38732	38020	34480	
1386	33456	38708	37980	34468	
1387	33744	38716	37988	34476	
1388	34032	38728	38012	34480	
1389	34352	38720	37996	34456	
1390	34576	38668	37988	34468	
1391	34416	38708	38020	34428	
1392	34144	38704	38012	34464	
1393	33840	38688	38024	34468	
1394	33264	38676	38004	34448	
1395	32592	38692	38004	34436	
1396	32064	38704	38004	34400	
1397	31632	38664	38020	34404	
1398	31312	38684	38012	34376	
1399	31088	38640	38032	34400	
1400	30832	38628	38032	34404	
1401	30384	38644	37984	34376	
1402	29824	38644	38012	34376	
1403	29376	38644	37976	34368	
1404	29408	38660	38008	34384	
1405	29664	38652	37984	34352	
1406	30112	38652	37988	34372	
1407	30608	38640	38008	34384	
1408	31104	38636	38012	34396	
1409	31536	38628	37976	34392	
1410	32000	38648	37992	34384	
1411	32304	38668	38004	34388	
1412	32608	38640	37980	34428	
1413	32864	38684	38016	34396	
1414	32944	38672	38008	34416	
1415	32992	38672	37972	34420	
1416	32976	38676	37968	34456	
1417	32960	38668	37960	34472	
1418	32864	38692	37944	34464	
1419	32768	38688	37872	34476	
1420	32784	38716	37904	34480	
1421	32816	38696	37908	34472	
1422	32928	38692	37944	34428	
1423	32960	38684	37960	34480	
1424	32976	38720	37932	34452	
1425	32880	38692	37948	34472	
1426	32752	38704	38036	34476	
1427	32640	38704	38052	34468	
1428	32720	38736	38068	34472	
1429	32832	38784	38112	34476	
1430	32912	38792	38048	34440	
1431	33024	38756	38016	34484	
1432	32960	38784	37992	34484	
1433	32896	38748	37952	34484	
1434	32816	38768	37928	34492	
1435	32784	38732	37956	34484	
1436	32720	38724	37956	34516	
1437	32816	38692	37908	34468	
1438	32864	38692	37900	34488	
1439	32864	38692	37952	34516	
1440	32816	38672	37916	34460	
1441	32800	38664	37948	34496	
1442	32640	38696	37936	34500	
1443	32592	38700	37964	34496	
1444	32576	38660	37972	34456	
1445	32624	38644	37956	34476	
1446	32656	38660	37956	34444	
1447	32720	38636	37940	34496	
1448	32768	38628	37940	34456	
1449	32672	38628	37968	34428	
1450	32544	38620	38000	34456	
1451	32448	38644	37976	34412	
1452	32448	38664	38020	34400	
1453	32560	38648	37968	34400	
1454	32640	38692	37988	34404	
1455	32656	38676	37976	34388	
1456	32704	38676	37992	34344	
1457	32640	38688	37972	34392	
1458	32624	38696	38020	34356	
1459	32480	38648	38000	34368	
1460	32512	38680	38012	34392	
1461	32656	38656	38016	34388	
1462	32704	38652	38020	34408	
1463	32832	38680	38008	34388	
1464	32848	38668	38008	34376	
1465	32800	38636	38016	34404	
1466	32688	38688	38016	34412	
1467	32672	38680	38008	34444	
1468	32736	38692	37956	34452	
1469	32832	38684	37996	34500	
1470	32848	38700	38028	34472	
1471	32848	38700	38016	34496	
1472	32864	38720	38028	34484	
1473	32800	38708	38068	34504	
1474	32736	38688	38056	34492	
1475	32704	38712	38024	34504	
1476	32784	38752	38032	34492	
1477	32896	38740	38028	34480	
1478	32960	38748	38020	34464	
1479	32928	38764	38020	34488	
1480	32944	38748	37980	34496	
1481	32960	38752	37992	34488	
1482	32832	38736	38012	34476	
1483	32720	38716	38000	34488	
1484	32784	38712	37988	34476	
1485	32864	38712	37980	34488	
1486	32928	38708	37972	34432	
1487	32832	38656	37980	34476	
1488	32880	38676	37936	34488	
1489	32832	38692	37992	34464	
1490	32768	38672	37956	34464	
1491	32656	38656	37920	34468	
1492	32704	38660	37932	34448	
1493	32720	38652	37888	34440	
1494	32736	38660	37924	34476	
1495	32688	38652	37968	34456	
1496	32784	38664	37968	34444	
1497	32752	38656	38000	34452	
1498	32496	38684	37992	34448	
1499	32448	38664	37976	34448	
1500	32448	38696	37956	34424	
1501	32464	38716	37976	34428	
1502	32480	38736	38016	34408	
1503	32480	38732	37936	34432	
1504	32480	38712	37924	34436	
1505	32336	38700	37908	34472	
1506	32208	38736	37884	34432	
1507	32032	38716	37904	34444	
1508	31872	38704	37916	34452	
1509	31968	38688	37900	34472	
1510	32016	38728	37908	34456	
1511	32016	38688	37964	34476	
1512	32000	38696	37984	34460	
1513	31904	38676	37948	34452	
1514	31776	38672	37992	34452	
1515	31728	38688	37940	34428	
1516	31696	38716	37956	34440	
1517	31712	38692	37924	34420	
1518	31760	38680	37904	34444	
1519	31776	38660	37968	34452	
1520	31792	38708	37924	34424	
1521	31808	38676	37984	34428	
1522	31712	38672	37968	34440	
1523	31584	38656	38004	34428	
1524	31616	38660	37988	34436	
1525	31600	38672	38012	34432	
1526	31728	38684	37984	34424	
1527	31760	38676	38008	34384	
1528	31744	38656	38020	34412	
1529	31696	38624	37984	34416	
1530	31584	38660	37992	34460	
1531	31408	38632	38028	34472	
1532	31424	38668	38004	34464	
1533	31504	38668	37984	34452	
1534	31568	38640	38028	34468	
1535	31584	38680	38012	34488	
1536	31648	38656	37992	34536	
1537	31664	38688	38004	34496	
1538	31552	38640	38004	34504	
1539	31472	38676	37980	34496	
1540	31552	38680	37956	34532	
1541	31760	38700	37968	34560	
1542	31856	38688	37992	34528	
1543	31840	38696	38000	34528	
1544	31920	38696	37988	34488	
1545	31888	38684	37972	34544	
1546	31808	38704	37940	34524	
1547	31808	38676	37912	34520	
1548	31792	38700	37940	34528	
1549	31904	38672	38004	34508	
1550	31952	38676	38024	34472	
1551	31984	38672	38040	34456	
1552	32080	38704	38040	34424	
1553	32064	38748	38008	34432	
1554	32064	38748	37996	34440	
1555	31984	38716	38004	34432	
1556	31984	38744	38008	34408	
1557	32112	38732	37988	34396	
1558	32208	38692	37992	34412	
1559	32272	38688	37976	34396	
1560	32272	38672	38016	34452	
1561	32160	38648	38008	34436	
1562	32144	38596	37996	34468	
1563	32096	38600	38004	34460	
1564	32112	38564	38012	34444	
1565	32224	38620	38024	34452	
1566	32304	38640	38024	34404	
1567	32416	38636	38016	34396	
1568	32400	38632	38004	34424	
1569	32384	38636	37964	34376	
1570	32272	38632	38008	34404	
1571	32256	38644	37992	34384	
1572	32272	38628	37972	34364	
1573	32384	38660	38000	34372	
1574	32528	38656	37984	34340	
1575	32560	38636	37996	34380	
1576	32544	38660	38016	34396	
1577	32512	38644	38016	34388	
1578	32368	38604	38008	34360	
1579	32288	38580	38024	34372	
1580	32336	38604	38040	34372	
1581	32432	38608	38064	34368	
1582	32544	38596	38092	34384	
1583	32496	38580	38096	34356	
1584	32544	38640	38068	34348	
1585	32496	38604	38060	34400	
1586	32400	38616	38080	34356	
1587	32416	38632	38096	34364	
1588	32416	38652	38096	34380	
1589	32480	38636	38108	34368	
1590	32560	38648	38128	34368	
1591	32544	38652	38120	34396	
1592	32608	38664	38168	34380	
1593	32544	38644	38124	34376	
1594	32400	38656	38136	34420	
1595	32336	38668	38144	34448	
1596	32352	38668	38168	34428	
1597	32352	38676	38120	34428	
1598	32480	38684	38156	34436	
1599	32528	38688	38144	34488	
1600	32480	38656	38116	34492	
1601	32400	38680	38132	34508	
1602	32288	38712	38116	34516	
1603	32240	38680	38092	34500	
1604	32304	38672	38060	34540	
1605	32336	38684	38104	34536	
1606	32432	38704	38068	34544	
1607	32464	38684	38076	34552	
1608	32576	38636	38052	34580	
1609	32560	38612	38060	34564	
1610	32480	38600	38052	34564	
1611	32336	38608	38076	34548	
1612	32368	38604	38084	34544	
1613	32416	38588	38048	34484	
1614	32432	38584	38100	34516	
1615	32496	38568	38068	34516	
1616	32528	38552	38080	34464	
1617	32592	38560	38080	34480	
1618	32480	38556	38088	34464	
1619	32320	38576	38108	34468	
1620	32400	38564	38072	34456	
1621	32400	38564	38092	34416	
1622	32496	38552	38108	34400	
1623	32528	38552	38068	34408	
1624	32528	38560	38096	34372	
1625	32496	38580	38080	34396	
1626	32368	38552	38128	34392	
1627	32224	38552	38068	34368	
1628	32240	38540	38080	34368	
1629	32272	38520	38072	34388	
1630	32448	38528	38076	34356	
1631	32384	38532	38068	34384	
1632	32464	38524	38108	34388	
1633	32368	38536	38104	34380	
1634	32368	38536	38100	34400	
1635	32272	38536	38100	34396	
1636	32256	38540	38092	34392	
1637	32256	38540	38064	34408	
1638	32368	38580	38080	34364	
1639	32480	38568	38104	34412	
1640	32464	38564	38112	34364	
1641	32448	38568	38068	34372	
1642	32384	38584	38112	34368	
1643	32256	38576	38104	34320	
1644	32304	38576	38116	34376	
1645	32384	38592	38116	34384	
1646	32352	38580	38092	34380	
1647	32400	38596	38132	34368	
1648	32432	38600	38104	34376	
1649	32336	38560	38076	34372	
1650	32208	38588	38076	34380	
1651	32160	38580	38112	34392	
1652	32128	38556	38100	34412	
1653	32144	38600	38068	34364	
1654	32192	38596	38108	34400	
1655	32256	38584	38072	34388	
1656	32320	38568	38124	34400	
1657	32416	38604	38100	34392	
1658	32352	38584	38092	34352	
1659	32400	38596	38092	34408	
1660	32304	38612	38068	34396	
1661	32320	38576	38060	34408	
1662	32288	38588	38048	34412	
1663	32336	38596	38056	34364	
1664	32272	38608	38056	34384	
1665	32352	38608	38052	34432	
1666	32224	38624	38060	34408	
1667	32160	38640	38092	34384	
1668	32048	38632	38056	34404	
1669	32096	38600	38044	34372	
1670	32304	38588	38056	34428	
1671	32320	38648	38104	34424	
1672	32320	38576	38072	34428	
1673	32304	38624	38100	34412	
1674	32128	38648	38064	34408	
1675	32048	38636	38100	34416	
1676	32080	38636	38052	34428	
1677	32176	38640	38032	34440	
1678	32304	38612	37988	34460	
1679	32352	38620	38080	34448	
1680	32352	38588	38120	34452	
1681	32288	38596	38072	34464	
1682	32176	38628	38160	34448	
1683	32144	38612	38116	34396	
1684	32160	38620	38140	34416	
1685	32240	38668	38076	34380	
1686	32352	38668	38104	34388	
1687	32432	38676	38124	34392	
1688	32608	38652	38068	34356	
1689	32608	38668	38128	34364	
1690	32560	38688	38152	34340	
1691	32496	38684	38116	34348	
1692	32464	38700	38092	34344	
1693	32480	38616	38076	34308	
1694	32512	38636	38076	34348	
1695	32528	38644	38140	34336	
1696	32560	38592	38108	34312	
1697	32576	38584	38100	34364	
1698	32416	38612	38144	34384	
1699	32256	38568	38116	34368	
1700	32304	38568	38120	34376	
1701	32400	38556	38092	34380	
1702	32512	38564	38076	34344	
1703	32512	38548	38120	34388	
1704	32592	38572	38108	34372	
1705	32560	38592	38076	34368	
1706	32384	38568	38072	34376	
1707	32336	38552	38076	34328	
1708	32320	38580	38104	34328	
1709	32400	38592	38120	34328	
1710	32544	38608	38156	34320	
1711	32608	38560	38076	34308	
1712	32592	38584	38088	34304	
1713	32512	38536	38140	34328	
1714	32448	38572	38088	34304	
1715	32272	38568	38108	34308	
1716	32240	38580	38116	34268	
1717	32400	38556	38128	34316	
1718	32464	38528	38140	34276	
1719	32496	38548	38100	34324	
1720	32496	38552	38068	34280	
1721	32528	38552	38076	34308	
1722	32432	38560	38076	34324	
1723	32336	38552	38040	34328	
1724	32288	38520	38060	34376	
1725	32352	38564	38116	34368	
1726	32368	38552	38136	34336	
1727	32336	38568	38120	34304	
1728	32336	38604	38108	34316	
1729	32352	38608	38060	34312	
1730	32224	38636	38044	34320	
1731	32160	38652	38108	34324	
1732	32144	38648	38056	34340	
1733	32144	38664	38072	34328	
1734	32272	38652	38108	34316	
1735	32240	38628	38104	34320	
1736	32240	38624	38156	34308	
1737	32272	38652	38116	34312	
1738	32192	38612	38072	34360	
1739	32112	38608	38096	34328	
1740	32048	38600	38108	34300	
1741	32176	38616	38144	34320	
1742	32288	38608	38180	34308	
1743	32240	38628	38168	34280	
1744	32272	38648	38152	34256	
1745	32272	38656	38120	34324	
1746	32288	38620	38120	34284	
1747	32224	38600	38116	34260	
1748	32192	38620	38120	34332	
1749	32288	38604	38152	34292	
1750	32352	38576	38180	34312	
1751	32336	38620	38172	34316	
1752	32384	38616	38108	34292	
1753	32368	38632	38128	34312	
1754	32304	38624	38124	34308	
1755	32160	38648	38176	34316	
1756	32208	38604	38116	34296	
1757	32336	38632	38100	34300	
1758	32464	38648	38104	34320	
1759	32672	38624	38100	34312	
1760	32784	38644	38100	34284	
1761	32992	38616	38136	34280	
1762	33088	38632	38104	34272	
1763	33328	38656	38096	34280	
1764	33584	38648	38112	34308	
1765	33920	38672	38156	34280	
1766	34208	38652	38088	34316	
1767	34480	38660	38164	34296	
1768	34480	38680	38132	34300	
1769	34240	38660	38124	34252	
1770	33952	38660	38108	34272	
1771	33584	38668	38140	34268	
1772	33008	38676	38164	34256	
1773	32528	38688	38144	34264	
1774	31968	38640	38136	34208	
1775	31616	38660	38116	34264	
1776	31296	38632	38124	34260	
1777	31040	38640	38120	34232	
1778	30720	38632	38120	34248	
1779	30176	38656	38096	34224	
1780	29584	38628	38068	34196	
1781	29392	38652	38104	34264	
1782	29456	38612	38140	34280	
1783	29728	38608	38092	34248	
1784	30112	38592	38108	34268	
1785	30656	38616	38100	34288	
1786	31056	38640	38152	34236	
1787	31520	38584	38184	34264	
1788	31952	38600	38164	34208	
1789	32336	38596	38172	34184	
1790	32752	38612	38140	34276	
1791	32896	38612	38180	34228	
1792	33040	38592	38156	34260	
1793	33056	38592	38164	34268	
1794	32976	38588	38156	34216	
1795	32816	38580	38148	34252	
1796	32768	38600	38132	34232	
1797	32816	38600	38136	34208	
1798	32864	38592	38116	34188	
1799	32928	38600	38084	34192	
1800	33008	38616	38136	34180	
1801	33056	38608	38128	34208	
1802	32944	38628	38168	34196	
1803	32864	38616	38180	34204	
1804	32864	38608	38180	34196	
1805	32928	38616	38180	34160	
1806	33056	38596	38212	34188	
1807	33072	38564	38164	34228	
1808	33072	38568	38204	34180	
1809	33008	38588	38204	34176	
1810	32848	38588	38188	34140	
1811	32720	38592	38188	34144	
1812	32624	38584	38180	34124	
1813	32720	38612	38152	34148	
1814	32800	38608	38184	34128	
1815	32880	38600	38176	34140	
1816	32800	38572	38192	34140	
1817	32848	38608	38188	34176	
1818	32720	38592	38188	34208	
1819	32640	38632	38212	34180	
1820	32608	38624	38232	34216	
1821	32656	38624	38212	34212	
1822	32672	38608	38204	34184	
1823	32592	38592	38268	34216	
1824	32736	38616	38212	34192	
1825	32768	38592	38260	34204	
1826	32720	38588	38240	34244	
1827	32544	38608	38244	34184	
1828	32496	38624	38264	34192	
1829	32608	38620	38248	34176	
1830	32688	38668	38260	34204	
1831	32672	38652	38236	34220	
1832	32752	38640	38240	34192	
1833	32800	38656	38260	34164	
1834	32704	38644	38252	34192	
1835	32592	38632	38256	34216	
1836	32624	38640	38256	34188	
1837	32672	38612	38256	34212	
1838	32832	38612	38272	34168	
1839	32960	38640	38244	34256	
1840	32960	38644	38248	34200	
1841	33024	38600	38264	34244	
1842	32944	38640	38264	34228	
1843	32736	38604	38252	34224	
1844	32624	38620	38252	34236	
1845	32720	38612	38236	34220	
1846	32816	38644	38256	34204	
1847	32784	38644	38268	34204	
1848	32736	38616	38232	34232	
1849	32768	38612	38240	34220	
1850	32688	38588	38248	34192	
1851	32592	38628	38228	34172	
1852	32496	38616	38248	34188	
1853	32640	38620	38220	34176	
1854	32720	38588	38240	34188	
1855	32816	38608	38168	34168	
1856	32896	38580	38172	34184	
1857	32896	38572	38180	34156	
1858	32752	38584	38168	34152	
1859	32672	38604	38172	34156	
1860	32640	38576	38096	34176	
1861	32736	38568	38120	34132	
1862	32848	38576	38120	34148	
1863	32832	38592	38148	34132	
1864	32848	38560	38092	34144	
1865	32816	38556	38080	34124	
1866	32688	38600	38048	34164	
1867	32608	38592	38064	34156	
1868	32560	38612	38048	34156	
1869	32608	38584	38048	34108	
1870	32672	38624	38032	34144	
1871	32576	38592	38032	34144	
1872	32624	38568	38036	34104	
1873	32592	38540	37988	34180	
1874	32496	38544	38032	34172	
1875	32464	38564	38036	34160	
1876	32512	38544	38060	34168	
1877	32496	38556	38068	34192	
1878	32528	38620	38120	34156	
1879	32448	38612	38044	34120	
1880	32432	38680	38028	34136	
1881	32352	38732	38040	34144	
1882	32320	38752	38016	34116	
1883	32208	38740	38004	34084	
1884	32208	38764	37996	34052	
1885	32192	38728	37964	34108	
1886	32256	38720	37988	34084	
1887	32144	38704	38008	34136	
1888	32080	38724	38072	34084	
1889	31936	38768	38020	34052	
1890	31840	38776	38016	34024	
1891	31712	38776	38004	34072	
1892	31616	38784	37940	34052	
1893	31632	38768	37988	34056	
1894	31600	38740	37988	34036	
1895	31600	38716	38004	34068	
1896	31552	38724	37964	34076	
1897	31472	38708	38004	34060	
1898	31376	38668	38032	34092	
1899	31280	38704	38020	34084	
1900	31184	38688	38012	34080	
1901	31264	38664	38028	34104	
1902	31312	38672	38024	34108	
1903	31392	38680	38020	34124	
1904	31392	38688	38056	34112	
1905	31360	38664	38048	34112	
1906	31408	38664	38064	34128	
1907	31232	38652	38072	34100	
1908	31280	38668	38072	34132	
1909	31344	38664	38104	34096	
1910	31488	38612	38072	34124	
1911	31520	38620	38104	34112	
1912	31552	38616	38120	34136	
1913	31632	38588	38144	34148	
1914	31600	38632	38168	34120	
1915	31520	38636	38188	34100	
1916	31520	38632	38152	34148	
1917	31536	38612	38168	34160	
1918	31664	38636	38208	34152	
1919	31760	38624	38196	34160	
1920	31776	38620	38172	34160	
1921	31792	38644	38196	34168	
1922	31776	38636	38180	34224	
1923	31776	38600	38196	34232	
1924	31760	38660	38200	34224	
1925	31840	38640	38200	34256	
1926	31952	38652	38208	34252	
1927	32048	38652	38216	34196	
1928	32064	38660	38216	34216	
1929	31968	38640	38232	34208	
1930	32016	38668	38220	34248	
1931	32016	38656	38224	34208	
1932	32016	38660	38204	34208	
1933	32048	38672	38192	34220	
1934	32128	38636	38208	34188	
1935	32176	38652	38192	34204	
1936	32224	38632	38196	34196	
1937	32224	38660	38164	34184	
1938	32096	38652	38200	34212	
1939	32048	38612	38196	34204	
1940	32032	38584	38184	34192	
1941	32096	38620	38196	34176	
1942	32176	38612	38188	34180	
1943	32176	38592	38176	34184	
1944	32192	38592	38192	34192	
1945	32208	38588	38152	34212	
1946	32224	38560	38152	34172	
1947	32064	38572	38104	34176	
1948	32000	38564	38180	34140	
1949	32032	38584	38168	34156	
1950	32160	38564	38128	34136	
1951	32176	38568	38120	34148	
1952	32176	38600	38108	34184	
1953	32160	38576	38036	34204	
1954	32144	38584	38044	34188	
1955	32032	38588	38048	34200	
1956	31952	38588	38056	34204	
1957	32080	38564	38044	34216	
1958	32176	38568	38056	34220	
1959	32288	38564	38072	34216	
1960	32288	38592	38080	34200	
1961	32384	38576	38056	34172	
1962	32288	38568	38068	34184	
1963	32192	38572	38060	34172	
1964	32208	38572	38112	34168	
1965	32304	38564	38060	34148	
1966	32464	38548	38084	34168	
1967	32432	38568	38072	34140	
1968	32416	38544	38116	34132	
1969	32416	38544	38100	34156	
1970	32384	38556	38124	34140	
1971	32384	38552	38176	34156	
1972	32336	38532	38168	34140	
1973	32496	38536	38156	34128	
1974	32608	38516	38192	34120	
1975	32688	38516	38192	34140	
1976	32672	38540	38204	34116	
1977	32688	38508	38204	34136	
1978	32512	38524	38224	34132	
1979	32432	38520	38236	34160	
1980	32384	38488	38212	34148	
1981	32464	38512	38240	34136	
1982	32544	38496	38248	34156	
1983	32576	38512	38260	34144	
1984	32560	38504	38240	34160	
1985	32464	38460	38260	34144	
1986	32400	38504	38276	34144	
1987	32272	38488	38268	34168	
1988	32272	38492	38288	34168	
1989	32336	38476	38288	34168	
1990	32368	38472	38300	34212	
1991	32320	38480	38304	34168	
1992	32336	38480	38316	34212	
1993	32432	38460	38320	34196	
1994	32352	38472	38328	34176	
1995	32272	38476	38316	34152	
1996	32240	38492	38320	34168	
1997	32288	38484	38320	34168	
1998	32304	38480	38320	34140	
1999	32336	38500	38328	34176	
2000	32368	38496	38320	34172	
2001	32384	38512	38340	34168	
2002	32288	38524	38312	34136	
2003	32208	38540	38324	34148	
2004	32176	38580	38348	34140	
2005	32240	38552	38340	34132	
2006	32288	38572	38332	34160	
2007	32336	38564	38304	34144	
2008	32384	38584	38296	34148	
2009	32336	38588	38292	34156	
2010	32304	38568	38276	34124	
2011	32192	38596	38280	34116	
2012	32192	38632	38276	34128	
2013	32208	38628	38248	34152	
2014	32240	38640	38248	34124	
2015	32272	38648	38228	34132	
2016	32272	38660	38212	34160	
2017	32240	38656	38220	34132	
2018	32224	38672	38220	34108	
2019	32096	38664	38188	34140	
2020	32112	38668	38200	34124	
2021	32176	38656	38192	34112	
2022	32288	38664	38172	34076	
2023	32336	38688	38136	34088	
2024	32240	38668	38156	34072	
2025	32240	38680	38136	34048	
2026	32224	38672	38168	34020	
2027	32144	38696	38184	33996	
2028	32096	38672	38156	34040	
2029	32144	38676	38168	34000	
2030	32304	38652	38164	33944	
2031	32368	38636	38204	33940	
2032	32400	38656	38168	33964	
2033	32384	38664	38120	33964	
2034	32336	38684	38100	33932	
2035	32176	38696	38100	33936	
2036	32208	38692	38188	33908	
2037	32224	38672	38236	33932	
2038	32288	38680	38164	33904	
2039	32400	38700	38080	33924	
2040	32416	38712	38104	33916	
2041	32416	38708	38148	33928	
2042	32288	38692	38208	33908	
2043	32224	38704	38092	33928	
2044	32288	38712	38056	33976	
2045	32256	38716	38044	33980	
2046	32400	38732	38104	33968	
2047	32464	38732	38184	33956	
2048	32560	38712	38172	33952	
2049	32544	38704	38160	33980	
2050	32528	38696	38128	33988	
2051	32448	38668	38124	33952	
2052	32352	38700	38116	33980	
2053	32400	38676	38148	34036	
2054	32464	38672	38156	34008	
2055	32464	38640	38168	34008	
2056	32496	38644	38168	34032	
2057	32512	38652	38160	34024	
2058	32496	38656	38172	34048	
2059	32448	38636	38148	34016	
2060	32416	38592	38132	34052	
2061	32336	38600	38148	34036	
2062	32368	38584	38176	34064	
2063	32448	38608	38136	34048	
2064	32448	38588	38148	34040	
2065	32528	38548	38160	34048	
2066	32448	38572	38176	34060	
2067	32352	38552	38180	34052	
2068	32288	38540	38180	34044	
2069	32224	38540	38196	34048	
2070	32288	38552	38208	34052	
2071	32368	38532	38212	34064	
2072	32464	38524	38192	34036	
2073	32528	38532	38232	34020	
2074	32512	38524	38228	34060	
2075	32448	38492	38252	34028	
2076	32448	38508	38256	34040	
2077	32480	38528	38272	34048	
2078	32544	38520	38252	34000	
2079	32528	38504	38268	33980	
2080	32624	38516	38284	34016	
2081	32672	38496	38292	34032	
2082	32624	38512	38284	34020	
2083	32480	38536	38296	34020	
2084	32464	38536	38340	34016	
2085	32544	38524	38328	34016	
2086	32480	38532	38312	33984	
2087	32448	38516	38340	34008	
2088	32480	38524	38340	33984	
2089	32464	38532	38348	34016	
2090	32448	38520	38340	33992	
2091	32352	38508	38340	33980	
2092	32304	38536	38372	33984	
2093	32352	38564	38384	33980	
2094	32400	38568	38376	34020	
2095	32528	38552	38340	33976	
2096	32512	38564	38360	33964	
2097	32448	38568	38360	33952	
2098	32384	38572	38372	34000	
2099	32288	38560	38368	33992	
2100	32288	38592	38368	33996	
2101	32368	38592	38348	33980	
2102	32416	38592	38332	33992	
2103	32416	38560	38352	33944	
2104	32384	38584	38332	33984	
2105	32368	38576	38320	33972	
2106	32304	38552	38304	33992	
2107	32176	38544	38308	33944	
2108	32128	38540	38328	33968	
2109	32160	38572	38296	33952	
2110	32240	38568	38276	33956	
2111	32304	38592	38284	33948	
2112	32336	38572	38292	33948	
2113	32432	38576	38268	33936	
2114	32512	38604	38272	33940	
2115	32384	38592	38276	33940	
2116	32272	38616	38248	33940	
2117	32320	38620	38260	33932	
2118	32384	38616	38248	33988	
2119	32416	38628	38256	33936	
2120	32512	38628	38252	33944	
2121	32560	38632	38244	33940	
2122	32544	38644	38244	33956	
2123	32464	38600	38236	33944	
2124	32448	38620	38232	33916	
2125	32432	38640	38224	33936	
2126	32496	38636	38228	33936	
2127	32448	38664	38224	33936	
2128	32480	38632	38224	33896	
2129	32480	38592	38212	33904	
2130	32448	38660	38228	33932	
2131	32368	38664	38240	33920	
2132	32240	38676	38188	33920	
2133	32304	38652	38220	33904	
2134	32416	38680	38176	33912	
2135	32416	38644	38176	33912	
2136	32400	38664	38188	33884	
2137	32368	38664	38168	33904	
2138	32272	38648	38180	33900	
2139	32128	38652	38136	33880	
2140	32032	38684	38164	33864	
2141	31984	38652	38156	33912	
2142	32048	38664	38132	33896	
2143	32160	38640	38164	33884	
2144	32144	38628	38156	33900	
2145	32144	38668	38116	33880	
2146	32192	38652	38176	33900	
2147	32128	38592	38168	33888	
2148	32112	38608	38196	33884	
2149	32112	38576	38200	33860	
2150	32144	38600	38164	33876	
2151	32256	38608	38144	33840	
2152	32336	38604	38188	33900	
2153	32304	38588	38204	33880	
2154	32304	38580	38208	33840	
2155	32224	38588	38232	33880	
2156	32176	38572	38220	33828	
2157	32224	38612	38216	33828	
2158	32288	38592	38244	33856	
2159	32288	38620	38232	33876	
2160	32352	38604	38252	33876	
2161	32336	38580	38260	33860	
2162	32304	38608	38252	33864	
2163	32336	38620	38260	33904	
2164	32192	38632	38240	33888	
2165	32176	38628	38280	33932	
2166	32320	38612	38260	33916	
2167	32400	38612	38244	33932	
2168	32432	38628	38284	33916	
2169	32528	38604	38264	33960	
2170	32528	38624	38280	33944	
2171	32560	38596	38272	33960	
2172	32592	38640	38276	33948	
2173	32912	38616	38276	33912	
2174	33248	38636	38280	33952	
2175	33584	38660	38296	33932	
2176	33888	38656	38288	33940	
2177	34160	38652	38296	33932	
2178	34400	38648	38288	33940	
2179	34208	38636	38272	33924	
2180	33936	38588	38288	33936	
2181	33840	38628	38304	33904	
2182	33584	38612	38280	33900	
2183	32912	38592	38300	33928	
2184	32256	38600	38268	33908	
2185	31584	38596	38304	33880	
2186	31088	38560	38296	33912	
2187	30736	38576	38280	33908	
2188	30528	38592	38280	33904	
2189	30304	38588	38304	33900	
2190	29968	38616	38296	33872	
2191	29488	38568	38276	33872	
2192	29184	38600	38256	33892	
2193	29344	38568	38272	33900	
2194	29744	38572	38284	33896	
2195	30128	38564	38264	33872	
2196	30720	38588	38264	33884	
2197	31408	38568	38280	33856	
2198	32000	38580	38268	33876	
2199	32480	38560	38264	33864	
2200	32816	38560	38268	33852	
2201	33072	38576	38268	33868	
2202	33040	38564	38264	33916	
2203	33008	38556	38260	33900	
2204	32976	38564	38264	33896	
2205	32992	38596	38220	33888	
2206	32992	38576	38216	33928	
2207	33040	38604	38220	33896	
2208	33088	38628	38204	33900	
2209	33056	38588	38192	33896	
2210	33040	38624	38172	33900	
2211	33008	38648	38144	33888	
2212	32944	38632	38152	33916	
2213	32960	38632	38196	33936	
2214	33024	38640	38164	33912	
2215	33056	38648	38168	33932	
2216	33152	38640	38192	33936	
2217	33072	38612	38216	33908	
2218	33008	38588	38240	33932	
2219	32880	38604	38232	33920	
2220	32800	38572	38232	33888	
2221	32848	38560	38208	33872	
2222	32816	38556	38204	33872	
2223	32992	38560	38192	33864	
2224	33056	38544	38192	33836	
2225	33040	38564	38192	33836	
2226	33072	38544	38188	33852	
2227	32976	38580	38188	33816	
2228	32880	38560	38164	33848	
2229	32864	38600	38144	33864	
2230	32880	38624	38184	33860	
2231	33024	38604	38224	33892	
2232	32992	38584	38252	33840	
2233	33040	38572	38220	33888	
2234	33040	38560	38244	33852	
2235	32976	38584	38256	33892	
2236	32880	38564	38244	33916	
2237	32832	38572	38252	33892	
2238	32864	38556	38216	33904	
2239	32896	38556	38244	33884	
2240	32960	38608	38240	33888	
2241	32880	38588	38268	33900	
2242	32912	38624	38256	33928	
2243	32848	38584	38252	33908	
2244	32816	38584	38268	33924	
2245	32736	38604	38268	33932	
2246	32816	38580	38280	33952	
2247	32976	38576	38272	33940	
2248	33008	38572	38264	33976	
2249	32944	38576	38276	33940	
2250	32928	38576	38284	33960	
2251	32752	38548	38284	33972	
2252	32800	38576	38288	33980	
2253	32736	38572	38284	33972	
2254	32832	38560	38292	33980	
2255	32928	38596	38284	33988	
2256	33024	38540	38284	33984	
2257	32976	38576	38276	33972	
2258	33040	38600	38284	33980	
2259	32880	38584	38272	33972	
2260	32800	38624	38276	34012	
2261	32752	38584	38276	34004	
2262	32928	38608	38288	34024	
2263	32992	38572	38260	34004	
2264	33024	38616	38256	34004	
2265	32976	38632	38280	34004	
2266	32976	38616	38256	33960	
2267	32848	38600	38280	33992	
2268	32784	38596	38260	33964	
2269	32816	38596	38276	33956	
2270	32864	38576	38280	33936	
2271	32896	38564	38296	33952	
2272	32960	38576	38300	33944	
2273	32976	38584	38284	33908	
2274	33024	38572	38292	33908	
2275	32912	38604	38284	33936	
2276	32912	38576	38300	33928	
2277	32880	38588	38272	33896	
2278	32880	38564	38272	33892	
2279	32880	38580	38308	33876	
2280	32864	38564	38296	33916	
2281	32832	38572	38300	33884	
2282	32832	38564	38308	33904	
2283	32752	38572	38292	33908	
2284	32704	38572	38296	33908	
2285	32768	38552	38328	33916	
2286	32768	38592	38320	33904	
2287	32816	38588	38308	33912	
2288	32848	38560	38296	33900	
2289	32768	38572	38296	33944	
2290	32704	38576	38292	33944	
2291	32512	38544	38300	33960	
2292	32400	38560	38264	33968	
2293	32336	38580	38284	34000	
2294	32352	38576	38268	34000	
2295	32336	38572	38292	33996	
2296	32256	38560	38268	34004	
2297	32304	38540	38276	33988	
2298	32288	38564	38292	33984	
2299	32096	38548	38292	34020	
2300	32048	38544	38296	34024	
2301	31952	38544	38276	33984	
2302	31904	38556	38304	34020	
2303	31872	38584	38324	34008	
2304	31808	38572	38304	34032	
2305	31840	38544	38324	34004	
2306	31728	38552	38296	34008	
2307	31632	38564	38296	34008	
2308	31504	38564	38284	33996	
2309	31440	38576	38288	34012	
2310	31488	38580	38276	34020	
2311	31424	38536	38300	34024	
2312	31472	38540	38276	34032	
2313	31472	38544	38288	34032	
2314	31408	38560	38284	34052	
2315	31264	38544	38284	34068	
2316	31120	38520	38280	34052	
2317	31136	38556	38248	34044	
2318	31168	38544	38268	34032	
2319	31168	38528	38244	34052	
2320	31216	38516	38252	34084	
2321	31184	38552	38244	34060	
2322	31168	38520	38208	34052	
2323	31152	38508	38208	34072	
2324	31104	38520	38232	34048	
2325	31136	38488	38208	34032	
2326	31248	38528	38212	34052	
2327	31392	38516	38224	34020	
2328	31504	38492	38224	34044	
2329	31552	38504	38216	34052	
2330	31472	38500	38164	34040	
2331	31408	38508	38188	34028	
2332	31328	38524	38192	34024	
2333	31440	38492	38208	34024	
2334	31520	38504	38240	34040	
2335	31632	38488	38220	34012	
2336	31728	38492	38220	34040	
2337	31840	38500	38224	33996	
2338	31824	38512	38252	33976	
2339	31760	38496	38236	34004	
2340	31696	38528	38252	34000	
2341	31664	38508	38236	33964	
2342	31776	38524	38236	34000	
2343	31888	38516	38252	34032	
2344	31968	38520	38264	34028	
2345	32016	38484	38264	34056	
2346	32032	38500	38288	34044	
2347	31968	38496	38272	34020	
2348	32000	38512	38288	34044	
2349	31984	38524	38304	34064	
2350	32048	38476	38288	34056	
2351	32048	38492	38316	34096	
2352	32176	38476	38356	34068	
2353	32208	38512	38324	34056	
2354	32224	38496	38300	34040	
2355	32112	38496	38328	34036	
2356	32064	38504	38336	34040	
2357	32016	38488	38332	34032	
2358	32048	38512	38328	34012	
2359	32192	38488	38316	34044	
2360	32240	38476	38344	34032	
2361	32208	38472	38352	34024	
2362	32160	38440	38336	34032	
2363	32128	38456	38316	34004	
2364	32032	38460	38308	34036	
2365	31968	38436	38316	34032	
2366	32032	38444	38312	34048	
2367	32096	38448	38304	34032	
2368	32192	38468	38292	34032	
2369	32144	38480	38284	34060	
2370	32224	38444	38260	34036	
2371	32176	38476	38252	34048	
2372	32064	38472	38248	34040	
2373	32128	38444	38256	34044	
2374	32176	38484	38240	34076	
2375	32160	38476	38232	34076	
2376	32192	38464	38212	34076	
2377	32192	38468	38204	34076	
2378	32128	38516	38212	34060	
2379	32032	38496	38204	34060	
2380	32016	38508	38196	34088	
2381	32096	38488	38236	34028	
2382	32224	38440	38296	34020	
2383	32288	38428	38260	34100	
2384	32336	38492	38232	34084	
2385	32336	38456	38236	34056	
2386	32336	38484	38232	34036	
2387	32224	38552	38208	34056	
2388	32192	38560	38236	34020	
2389	32240	38520	38292	33988	
2390	32352	38552	38284	34004	
2391	32384	38588	38212	33980	
2392	32352	38592	38212	33988	
2393	32336	38624	38220	33968	
2394	32288	38588	38248	33984	
2395	32224	38596	38292	34000	
2396	32208	38608	38224	33984	
2397	32256	38652	38220	33992	
2398	32176	38644	38236	34012	
2399	32304	38636	38244	34016	
2400	32272	38568	38268	33996	
2401	32320	38644	38248	34044	
2402	32336	38636	38236	34024	
2403	32272	38640	38264	33992	
2404	32208	38616	38244	34012	
2405	32240	38616	38252	34036	
2406	32288	38604	38284	33988	
2407	32416	38620	38272	34012	
2408	32448	38568	38272	34024	
2409	32576	38560	38272	34028	
2410	32608	38548	38276	34044	
2411	32496	38544	38308	34048	
2412	32432	38540	38284	34080	
2413	32320	38516	38300	34028	
2414	32352	38520	38304	34040	
2415	32464	38520	38316	34056	
2416	32512	38508	38292	34044	
2417	32464	38492	38320	34084	
2418	32384	38536	38316	34076	
2419	32304	38504	38316	34036	
2420	32272	38516	38308	34072	
2421	32240	38512	38296	34100	
2422	32368	38500	38308	34088	
2423	32352	38516	38312	34080	
2424	32320	38512	38304	34064	
2425	32400	38516	38312	34068	
2426	32368	38508	38292	34056	
2427	32320	38532	38280	34040	
2428	32256	38520	38292	34068	
2429	32256	38500	38292	34048	
2430	32304	38512	38280	34076	
2431	32400	38500	38284	34040	
2432	32448	38516	38308	34044	
2433	32528	38520	38272	34016	
2434	32464	38480	38304	34032	
2435	32416	38488	38300	34028	
2436	32368	38504	38276	34020	
2437	32384	38516	38296	34000	
2438	32384	38528	38316	34004	
2439	32416	38492	38296	33996	
2440	32480	38500	38312	33984	
2441	32528	38492	38268	33964	
2442	32512	38504	38268	33948	
2443	32464	38484	38284	33980	
2444	32432	38492	38296	33948	
2445	32336	38488	38304	33932	
2446	32432	38476	38292	33960	
2447	32512	38484	38292	33964	
2448	32512	38472	38300	33968	
2449	32528	38464	38304	33952	
2450	32624	38480	38316	33948	
2451	32496	38484	38292	33988	
2452	32400	38468	38296	33956	
2453	32352	38480	38292	33936	
2454	32432	38456	38264	33980	
2455	32608	38464	38284	33956	
2456	32608	38480	38280	34004	
2457	32624	38468	38264	33980	
2458	32624	38488	38268	33996	
2459	32480	38492	38284	34048	
2460	32384	38496	38268	33996	
2461	32320	38524	38260	33992	
2462	32368	38504	38268	34012	
2463	32400	38508	38280	34012	
2464	32432	38516	38308	34012	
2465	32448	38532	38256	34020	
2466	32384	38512	38296	34000	
2467	32336	38496	38276	34028	
2468	32304	38532	38268	33984	
2469	32272	38528	38292	33988	
2470	32416	38520	38296	33984	
2471	32416	38524	38316	33968	
2472	32448	38552	38292	33972	
2473	32480	38544	38304	33984	
2474	32496	38516	38288	33960	
2475	32480	38556	38292	33952	
2476	32352	38528	38320	34000	
2477	32352	38532	38320	33988	
2478	32400	38524	38312	33968	
2479	32448	38540	38320	33968	
2480	32512	38532	38320	33944	
2481	32576	38548	38320	33956	
2482	32528	38524	38348	33960	
2483	32368	38536	38304	33956	
2484	32224	38512	38304	33968	
2485	32224	38528	38332	33988	
2486	32240	38504	38304	33960	
2487	32224	38456	38356	33960	
2488	32304	38400	38396	34028	
2489	32368	38420	38392	34064	
2490	32336	38436	38316	34064	
2491	32304	38456	38356	33968	
2492	32208	38520	38344	34028	
2493	32208	38528	38352	33984	
2494	32272	38544	38324	34004	
2495	32400	38612	38280	33964	
2496	32480	38604	38264	34012	
2497	32544	38576	38252	33984	
2498	32656	38636	38256	33968	
2499	32560	38656	38228	33960	
2500	32384	38620	38252	33928	
2501	32416	38608	38284	33912	
2502	32560	38596	38288	33956	
2503	32688	38580	38284	33920	
2504	32640	38568	38300	33920	
2505	32624	38556	38300	33904	
2506	32640	38516	38320	33904	
2507	32480	38544	38312	33924	
2508	32352	38524	38324	33940	
2509	32400	38500	38344	33920	
2510	32480	38496	38324	33904	
2511	32592	38480	38324	33924	
2512	32608	38536	38328	33896	
2513	32624	38528	38320	33912	
2514	32576	38508	38316	33884	
2515	32528	38524	38336	33860	
2516	32416	38548	38296	33872	
2517	32432	38544	38340	33872	
2518	32528	38520	38308	33888	
2519	32592	38528	38312	33856	
2520	32592	38532	38324	33896	
2521	32704	38504	38320	33860	
2522	32816	38500	38328	33900	
2523	32880	38508	38328	33904	
2524	32768	38524	38312	33900	
2525	32720	38500	38340	33920	
2526	32784	38516	38300	33912	
2527	32752	38516	38316	33928	
2528	32720	38508	38316	33940	
2529	32752	38524	38324	33932	
2530	32720	38548	38332	33944	
2531	32720	38496	38312	33924	
2532	32672	38516	38304	33916	
2533	32576	38516	38328	33940	
2534	32608	38492	38344	33924	
2535	32624	38536	38316	33912	
2536	32672	38520	38312	33932	
2537	32688	38508	38316	33908	
2538	32752	38540	38320	33932	
2539	32672	38552	38308	33884	
2540	32592	38548	38332	33916	
2541	32544	38524	38296	33908	
2542	32544	38536	38316	33924	
2543	32624	38564	38324	33912	
2544	32608	38544	38308	33912	
2545	32640	38548	38296	33940	
2546	32560	38548	38284	33932	
2547	32496	38572	38308	33944	
2548	32384	38572	38296	33904	
2549	32304	38548	38292	33924	
2550	32320	38568	38300	33936	
2551	32352	38580	38280	33924	
2552	32336	38552	38272	33928	
2553	32368	38568	38280	33944	
2554	32336	38572	38260	33952	
2555	32224	38612	38264	33948	
2556	32112	38592	38312	33932	
2557	32016	38604	38288	33964	
2558	32128	38556	38288	33960	
2559	32176	38616	38292	33932	
2560	32208	38612	38268	33940	
2561	32192	38600	38272	33944	
2562	32224	38600	38256	33940	
2563	32160	38592	38280	33940	
2564	32080	38600	38276	33936	
2565	32000	38568	38260	33940	
2566	32128	38628	38280	33928	
2567	32208	38576	38288	33908	
2568	32304	38576	38288	33924	
2569	32304	38572	38252	33920	
2570	32288	38576	38280	33912	
2571	32176	38556	38276	33896	
2572	32128	38576	38276	33892	
2573	32144	38544	38256	33900	
2574	32160	38580	38276	33884	
2575	32256	38560	38252	33892	
2576	32320	38564	38264	33932	
2577	32416	38532	38272	33904	
2578	32560	38544	38260	33904	
2579	32640	38540	38276	33904	
2580	32816	38552	38264	33900	
2581	32960	38564	38280	33928	
2582	33200	38572	38256	33884	
2583	33616	38548	38288	33892	
2584	33968	38540	38276	33892	
2585	34240	38516	38264	33904	
2586	34256	38508	38304	33876	
2587	33936	38500	38284	33896	
2588	33744	38484	38292	33860	
2589	33472	38508	38300	33876	
2590	32960	38508	38284	33892	
2591	32288	38488	38272	33864	
2592	31696	38444	38296	33852	
2593	31152	38460	38304	33848	
2594	30800	38484	38300	33880	
2595	30560	38468	38288	33844	
2596	30320	38452	38296	33852	
2597	29968	38464	38304	33816	
2598	29440	38456	38320	33852	
2599	29248	38452	38320	33860	
2600	29296	38432	38348	33860	
2601	29632	38464	38328	33844	
2602	30112	38460	38352	33852	
2603	30688	38440	38356	33880	
2604	31264	38448	38376	33884	
2605	31920	38444	38396	33860	
2606	32400	38468	38348	33900	
2607	32736	38436	38380	33868	
2608	32960	38436	38396	33872	
2609	33024	38448	38388	33892	
2610	33024	38448	38408	33932	
2611	33088	38444	38392	33924	
2612	33040	38472	38380	33908	
2613	32992	38464	38376	33972	
2614	33056	38460	38352	33924	
2615	33104	38488	38336	33908	
2616	33136	38496	38360	33900	
2617	33232	38544	38348	33916	
2618	33200	38528	38336	33908	
2619	33072	38492	38344	33904	
2620	32944	38544	38336	33884	
2621	32912	38540	38348	33932	
2622	32960	38528	38368	33920	
2623	33024	38548	38356	33928	
2624	33024	38528	38348	33940	
2625	33056	38548	38376	33952	
2626	33104	38520	38384	33940	
2627	32960	38500	38356	33924	
2628	32896	38492	38360	33916	
2629	32816	38496	38368	33928	
2630	32864	38476	38328	33880	
2631	32944	38508	38308	33920	
2632	32976	38496	38304	33868	
2633	32992	38504	38288	33860	
2634	32992	38516	38308	33876	
2635	32912	38524	38288	33888	
2636	32784	38552	38284	33852	
2637	32752	38532	38288	33864	
2638	32768	38540	38292	33868	
2639	32880	38548	38300	33876	
2640	32816	38552	38300	33884	
2641	32784	38536	38292	33876	
2642	32832	38532	38260	33908	
2643	32784	38544	38312	33864	
2644	32704	38532	38288	33904	
2645	32608	38532	38268	33848	
2646	32656	38540	38284	33884	
2647	32640	38524	38272	33852	
2648	32736	38536	38304	33856	
2649	32752	38540	38280	33816	
2650	32752	38540	38324	33812	
2651	32720	38540	38324	33804	
2652	32624	38528	38340	33836	
2653	32624	38544	38312	33824	
2654	32688	38512	38332	33812	
2655	32784	38548	38340	33804	
2656	32832	38520	38344	33820	
2657	32816	38536	38324	33804	
2658	32768	38528	38328	33828	
2659	32720	38532	38316	33832	
2660	32640	38548	38328	33872	
2661	32624	38532	38328	33804	
2662	32736	38564	38364	33828	
2663	32784	38580	38348	33856	
2664	32816	38556	38352	33864	
2665	32784	38532	38340	33868	
2666	32768	38528	38360	33872	
2667	32656	38540	38336	33900	
2668	32624	38548	38344	33916	
2669	32624	38540	38352	33924	
2670	32704	38560	38336	33904	
2671	32832	38540	38332	33944	
2672	32848	38536	38332	33944	
2673	32912	38560	38324	33944	
2674	32864	38556	38340	33956	
2675	32912	38552	38344	33912	
2676	32816	38528	38336	33984	
2677	32768	38524	38312	33944	
2678	32880	38524	38312	33932	
2679	32896	38524	38320	33920	
2680	32944	38540	38352	33904	
2681	32928	38556	38312	33912	
2682	32928	38540	38360	33924	
2683	32928	38560	38328	33892	
2684	32784	38532	38340	33896	
2685	32784	38532	38340	33912	
2686	32816	38528	38308	33928	
2687	32832	38516	38304	33932	
2688	32944	38496	38312	33908	
2689	32960	38516	38324	33920	
2690	32960	38508	38312	33896	
2691	32848	38516	38316	33916	
2692	32784	38520	38312	33932	
2693	32752	38528	38320	33892	
2694	32768	38528	38328	33912	
2695	32816	38520	38320	33912	
2696	32832	38512	38296	33904	
2697	32848	38516	38324	33912	
2698	32832	38504	38328	33908	
2699	32752	38504	38292	33916	
2700	32544	38512	38320	33928	
2701	32384	38492	38320	33908	
2702	32224	38480	38320	33904	
2703	32256	38496	38340	33908	
2704	32256	38500	38336	33916	
2705	32224	38504	38336	33920	
2706	32128	38500	38300	33904	
2707	32000	38496	38312	33884	
2708	31888	38484	38316	33892	
2709	31872	38516	38324	33908	
2710	31792	38504	38292	33904	
2711	31792	38520	38296	33912	
2712	31792	38512	38308	33908	
2713	31840	38528	38300	33908	
2714	31776	38500	38348	33896	
2715	31696	38500	38312	33836	
2716	31600	38536	38308	33904	
2717	31424	38508	38332	33876	
2718	31456	38528	38352	33880	
2719	31472	38540	38340	33896	
2720	31408	38548	38348	33876	
2721	31376	38524	38340	33872	
2722	31424	38520	38320	33880	
2723	31472	38520	38360	33880	
2724	31360	38528	38360	33884	
2725	31312	38528	38332	33876	
2726	31344	38532	38340	33900	
2727	31488	38524	38360	33856	
2728	31632	38500	38372	33880	
2729	31664	38512	38348	33868	
2730	31600	38520	38376	33896	
2731	31568	38516	38352	33872	
2732	31504	38524	38372	33872	
2733	31392	38500	38340	33904	
2734	31488	38484	38344	33868	
2735	31584	38520	38352	33884	
2736	31536	38492	38344	33928	
2737	31584	38524	38332	33892	
2738	31664	38524	38348	33936	
2739	31648	38512	38344	33920	
2740	31600	38496	38352	33940	
2741	31584	38520	38336	33956	
2742	31536	38512	38356	33912	
2743	31728	38532	38344	33908	
2744	31712	38524	38344	33908	
2745	31776	38516	38324	33908	
2746	31840	38560	38336	33916	
2747	31824	38556	38340	33924	
2748	31760	38520	38340	33936	
2749	31680	38540	38296	33916	
2750	31712	38548	38332	33924	
2751	31808	38520	38304	33912	
2752	31952	38568	38276	33916	
2753	31984	38548	38280	33920	
2754	31984	38572	38272	33932	
2755	31936	38548	38288	33952	
2756	31856	38540	38288	33940	
2757	31872	38532	38316	33932	
2758	31984	38548	38284	33952	
2759	32096	38548	38296	33984	
2760	32128	38548	38316	33956	
2761	32192	38536	38292	33980	
2762	32176	38544	38296	33968	
2763	32112	38552	38272	33908	
2764	32080	38540	38272	33936	
2765	31952	38524	38252	33928	
2766	32048	38560	38272	33920	
2767	32112	38556	38280	33908	
2768	32208	38568	38260	33916	
2769	32320	38556	38260	33908	
2770	32368	38548	38272	33872	
2771	32304	38552	38260	33932	
2772	32208	38532	38276	33940	
2773	32192	38544	38268	33932	
2774	32256	38536	38268	33912	
2775	32336	38508	38264	33900	
2776	32368	38524	38276	33892	
2777	32384	38532	38272	33900	
2778	32320	38516	38284	33896	
2779	32320	38496	38268	33864	
2780	32288	38528	38252	33896	
2781	32240	38544	38268	33880	
2782	32288	38564	38264	33884	
2783	32288	38548	38240	33912	
2784	32464	38544	38252	33912	
2785	32416	38544	38252	33904	
2786	32496	38572	38260	33912	
2787	32352	38552	38284	33876	
2788	32224	38528	38264	33892	
2789	32144	38548	38284	33920	
2790	32208	38552	38292	33924	
2791	32256	38532	38304	33932	
2792	32320	38540	38296	33924	
2793	32384	38540	38292	33924	
2794	32368	38532	38280	33936	
2795	32272	38536	38288	33956	
2796	32240	38552	38312	33952	
2797	32224	38556	38292	33936	
2798	32240	38544	38312	33972	
2799	32352	38556	38312	33948	
2800	32352	38540	38292	33976	
2801	32368	38552	38292	33988	
2802	32464	38560	38328	33960	
2803	32416	38540	38296	33964	
2804	32256	38568	38316	34024	
2805	32192	38552	38296	34008	
2806	32224	38536	38320	34012	
2807	32320	38536	38312	34004	
2808	32384	38536	38336	34040	
2809	32464	38524	38300	34020	
2810	32432	38528	38308	34028	
2811	32320	38540	38300	34032	
2812	32240	38536	38316	34032	
2813	32192	38544	38308	34052	
2814	32240	38544	38312	34012	
2815	32272	38528	38324	34024	
2816	32384	38528	38320	34016	
2817	32400	38528	38332	34020	
2818	32432	38536	38320	33996	
2819	32320	38532	38292	33984	
2820	32224	38536	38304	33968	
2821	32160	38548	38304	33984	
2822	32176	38516	38340	33968	
2823	32304	38504	38300	33940	
2824	32352	38532	38332	33980	
2825	32320	38512	38320	33992	
2826	32384	38508	38296	33948	
2827	32384	38504	38324	33960	
2828	32224	38504	38300	33932	
2829	32176	38524	38300	33932	
2830	32192	38524	38284	33936	
2831	32256	38524	38288	33912	
2832	32208	38528	38272	33932	
2833	32240	38528	38292	33916	
2834	32208	38516	38292	33940	
2835	32224	38524	38264	33932	
2836	32144	38524	38260	33904	
2837	32096	38520	38296	33920	
2838	32112	38524	38276	33916	
2839	32160	38544	38276	33940	
2840	32256	38536	38256	33928	
2841	32272	38536	38268	33880	
2842	32256	38524	38260	33928	
2843	32240	38532	38264	33924	
2844	32160	38528	38256	33904	
2845	32080	38536	38236	33924	
2846	32064	38556	38256	33920	
2847	32208	38532	38264	33900	
2848	32304	38568	38256	33920	
2849	32368	38544	38260	33908	
2850	32368	38556	38276	33948	
2851	32336	38556	38256	33896	
2852	32128	38532	38256	33900	
2853	32160	38568	38276	33932	
2854	32224	38544	38268	33940	
2855	32336	38556	38228	33924	
2856	32320	38544	38260	33916	
2857	32384	38560	38248	33924	
2858	32352	38552	38224	33896	
2859	32320	38564	38248	33932	
2860	32240	38560	38236	33912	
2861	32096	38564	38244	33928	
2862	32112	38548	38236	33940	
2863	32256	38548	38216	33916	
2864	32352	38560	38244	33920	
2865	32368	38572	38248	33928	
2866	32448	38564	38252	33928	
2867	32320	38552	38252	33936	
2868	32208	38560	38264	33972	
2869	32208	38552	38252	33948	
2870	32224	38556	38248	33976	
2871	32352	38544	38252	33952	
2872	32304	38532	38244	33956	
2873	32336	38536	38272	33964	
2874	32320	38528	38244	33996	
2875	32320	38540	38256	33980	
2876	32272	38544	38276	33948	
2877	32192	38504	38272	34004	
2878	32288	38544	38280	34000	
2879	32400	38552	38288	34012	
2880	32464	38508	38276	33988	
2881	32528	38540	38264	33996	
2882	32528	38512	38268	34008	
2883	32448	38540	38288	34016	
2884	32368	38524	38300	33992	
2885	32288	38528	38304	33976	
2886	32400	38516	38292	34020	
2887	32352	38496	38256	34012	
2888	32432	38524	38288	34024	
2889	32512	38512	38296	33988	
2890	32448	38512	38280	34008	
2891	32480	38508	38284	33996	
2892	32368	38532	38276	34016	
2893	32400	38524	38312	33988	
2894	32384	38516	38272	33984	
2895	32464	38536	38296	34004	
2896	32544	38536	38300	33980	
2897	32544	38508	38288	33992	
2898	32496	38536	38300	33968	
2899	32448	38536	38300	33944	
2900	32384	38524	38308	33976	
2901	32384	38536	38296	33944	
2902	32400	38512	38304	33956	
2903	32512	38516	38288	33980	
2904	32576	38512	38288	33960	
2905	32528	38508	38304	33956	
2906	32560	38528	38320	33972	
2907	32528	38516	38316	33996	
2908	32496	38524	38312	33992	
2909	32448	38508	38304	33980	
2910	32480	38528	38304	34020	
2911	32512	38540	38304	33988	
2912	32624	38532	38316	33996	
2913	32624	38520	38328	34028	
2914	32688	38532	38312	34020	
2915	32752	38516	38276	34020	
2916	32688	38528	38304	34040	
2917	32672	38520	38304	34048	
2918	32640	38536	38280	34036	
2919	32832	38540	38284	34040	
2920	32848	38536	38284	34016	
2921	32928	38536	38260	34000	
2922	32912	38524	38268	34016	
2923	32880	38556	38276	34004	
2924	32752	38540	38268	34036	
2925	32704	38540	38296	34032	
2926	32720	38512	38272	34028	
2927	32816	38532	38256	34016	
2928	32816	38528	38280	33996	
2929	32896	38552	38288	33988	
2930	32912	38528	38260	34016	
2931	32816	38540	38268	33984	
2932	32736	38540	38264	33976	
2933	32656	38524	38244	33984	
2934	32672	38504	38264	33960	
2935	32864	38512	38280	33948	
2936	32864	38516	38284	33948	
2937	32896	38516	38272	33988	
2938	32832	38492	38272	33968	
2939	32800	38500	38252	33960	
2940	32704	38504	38252	33972	
2941	32640	38528	38280	33948	
2942	32624	38520	38280	33984	
2943	32640	38500	38248	34020	
2944	32544	38496	38272	34024	
2945	32528	38504	38264	34036	
2946	32464	38500	38276	34024	
2947	32336	38504	38268	34052	
2948	32272	38528	38276	34044	
2949	32176	38492	38252	34076	
2950	32144	38516	38264	34064	
2951	32224	38520	38256	34080	
2952	32304	38524	38260	34068	
2953	32240	38528	38260	34052	
2954	32304	38548	38280	34108	
2955	32304	38540	38276	34072	
2956	32304	38556	38228	34072	
2957	32176	38548	38248	34096	
2958	32224	38556	38276	34044	
2959	32208	38552	38272	34028	
2960	32320	38572	38268	34016	
2961	32336	38572	38276	34020	
2962	32368	38560	38300	34020	
2963	32336	38528	38280	34012	
2964	32128	38548	38312	34020	
2965	32160	38544	38304	34020	
2966	32144	38552	38320	33980	
2967	32256	38588	38324	33984	
2968	32256	38580	38340	34036	
2969	32320	38548	38288	34056	
2970	32368	38564	38308	34016	
2971	32416	38552	38300	34008	
2972	32368	38536	38284	34024	
2973	32336	38552	38300	34036	
2974	32448	38548	38280	34032	
2975	32624	38556	38276	34036	
2976	32848	38572	38280	34036	
2977	33072	38552	38268	34052	
2978	33296	38548	38272	34052	
2979	33568	38592	38260	34036	
2980	33776	38532	38252	34028	
2981	33904	38556	38268	34028	
2982	34096	38520	38284	34064	
2983	34128	38536	38264	34036	
2984	34032	38524	38236	34040	
2985	34016	38512	38240	34036	
2986	33872	38528	38264	34036	
2987	33504	38552	38248	34044	
2988	33024	38544	38256	34024	
2989	32352	38544	38272	34020	
2990	31856	38536	38268	34028	
2991	31520	38560	38248	34028	
2992	31248	38536	38260	34012	
2993	30896	38520	38280	34008	
2994	30384	38508	38268	33988	
2995	29584	38512	38256	33992	
2996	29136	38516	38264	34020	
2997	29104	38508	38276	34032	
2998	29424	38492	38276	34028	
2999	29888	38484	38300	34004	
3000	30400	38484	38280	34032	
3001	30864	38472	38268	34032	
3002	31376	38476	38280	33988	
3003	31920	38464	38300	34008	
3004	32272	38488	38320	33992	
3005	32528	38516	38328	34036	
3006	32768	38484	38324	34028	
3007	32880	38476	38300	34056	
3008	32976	38476	38300	34052	
3009	33136	38476	38276	34068	
3010	33232	38504	38280	34076	
3011	33264	38480	38296	34120	
3012	33136	38508	38260	34092	
3013	32992	38476	38272	34072	
3014	33040	38512	38264	34124	
3015	33088	38516	38272	34132	
3016	33104	38528	38280	34124	
3017	33072	38536	38280	34124	
3018	33168	38540	38272	34144	
3019	33104	38524	38276	34168	
3020	32992	38520	38260	34152	
3021	32928	38516	38276	34160	
3022	32960	38516	38272	34124	
3023	32992	38508	38272	34152	
3024	32976	38488	38300	34124	
3025	33008	38480	38276	34092	
3026	33088	38500	38248	34084	
3027	33136	38500	38272	34068	
3028	32976	38492	38248	34080	
3029	32912	38492	38252	34080	
3030	32880	38504	38240	34068	
3031	32848	38516	38244	34068	
3032	32864	38512	38252	34032	
3033	32928	38528	38256	34028	
3034	32928	38524	38268	34024	
3035	32880	38520	38280	34056	
3036	32752	38504	38276	34068	
3037	32624	38508	38284	34080	
3038	32640	38508	38240	34064	
3039	32672	38504	38268	34040	
3040	32752	38484	38260	34044	
3041	32704	38496	38236	34032	
3042	32688	38496	38240	34048	
3043	32608	38512	38240	34048	
3044	32528	38504	38300	34044	
3045	32496	38508	38292	34060	
3046	32448	38536	38256	34036	
3047	32624	38552	38248	34100	
3048	32608	38568	38252	34060	
3049	32688	38568	38248	34096	
3050	32704	38540	38356	34084	
3051	32720	38588	38312	34040	
3052	32608	38628	38288	34096	
3053	32560	38616	38292	34056	
3054	32544	38640	38276	34064	
3055	32576	38664	38292	34100	
3056	32640	38648	38280	34036	
3057	32640	38652	38340	34056	
3058	32656	38620	38336	34064	
3059	32640	38616	38332	34060	
3060	32544	38652	38348	34108	
3061	32512	38632	38312	34092	
3062	32544	38616	38304	34104	
3063	32656	38620	38316	34136	
3064	32656	38600	38348	34096	
3065	32752	38612	38300	34156	
3066	32800	38584	38312	34168	
3067	32848	38592	38272	34152	
3068	32816	38608	38280	34204	
3069	32832	38568	38244	34208	
3070	32768	38560	38284	34184	
3071	32832	38564	38284	34168	
3072	32960	38548	38268	34168	
3073	32976	38580	38264	34176	
3074	33056	38580	38256	34176	
3075	33040	38568	38232	34164	
3076	32944	38540	38228	34156	
3077	32928	38576	38224	34160	
3078	32944	38552	38176	34164	
3079	33024	38540	38232	34156	
3080	33072	38524	38188	34132	
3081	33136	38520	38204	34144	
3082	33088	38512	38220	34148	
3083	33088	38492	38240	34064	
3084	32976	38508	38224	34112	
3085	32880	38504	38220	34076	
3086	32864	38492	38240	34092	
3087	32976	38496	38248	34120	
3088	33056	38512	38264	34056	
3089	33072	38504	38260	34032	
3090	33072	38496	38256	34056	
3091	33024	38500	38264	33988	
3092	32928	38504	38264	33992	
3093	32752	38468	38260	34008	
3094	32688	38524	38264	34036	
3095	32672	38488	38260	34008	
3096	32672	38476	38252	34000	
3097	32624	38480	38268	34020	
3098	32624	38492	38268	34016	
3099	32560	38480	38248	34044	
3100	32384	38492	38244	34032	
3101	32336	38504	38248	34004	
3102	32208	38480	38232	34020	
3103	32160	38496	38272	34020	
3104	32208	38504	38268	34048	
3105	32144	38468	38236	34040	
3106	32096	38504	38220	34048	
3107	32080	38496	38228	34048	
3108	31952	38472	38224	34060	
3109	31808	38484	38236	34048	
3110	31632	38508	38252	34060	
3111	31648	38512	38248	34052	
3112	31664	38516	38252	34032	
3113	31616	38504	38256	34028	
3114	31600	38500	38252	34028	
3115	31536	38488	38264	34036	
3116	31456	38532	38280	34056	
3117	31376	38548	38276	34044	
3118	31440	38536	38236	34052	
3119	31392	38524	38248	34076	
3120	31280	38520	38260	34092	
3121	31296	38540	38252	34104	
3122	31344	38544	38252	34084	
3123	31376	38512	38256	34132	
3124	31392	38536	38252	34112	
3125	31264	38556	38264	34124	
3126	31312	38540	38272	34148	
3127	31392	38560	38228	34212	
3128	31456	38548	38208	34192	
3129	31536	38564	38224	34188	
3130	31552	38552	38232	34188	
3131	31584	38572	38200	34208	
3132	31568	38568	38204	34232	
3133	31520	38580	38188	34240	
3134	31600	38544	38224	34264	
3135	31584	38592	38212	34268	
3136	31632	38580	38224	34196	
3137	31728	38600	38184	34192	
3138	31808	38564	38208	34228	
3139	31824	38564	38212	34200	
3140	31744	38580	38208	34172	
3141	31712	38576	38220	34164	
3142	31840	38564	38208	34188	
3143	31904	38556	38220	34128	
3144	31984	38564	38224	34144	
3145	31984	38576	38228	34140	
3146	32048	38576	38220	34144	
3147	32128	38588	38216	34132	
3148	32032	38580	38232	34144	
3149	31936	38548	38196	34128	
3150	31984	38568	38228	34144	
3151	32128	38568	38260	34120	
3152	32160	38560	38228	34124	
3153	32320	38524	38240	34088	
3154	32288	38536	38256	34084	
3155	32256	38540	38252	34080	
3156	32224	38512	38268	34096	
3157	32128	38556	38264	34092	
3158	32096	38512	38240	34052	
3159	32256	38508	38240	34052	
3160	32368	38492	38224	34048	
3161	32416	38500	38240	34040	
3162	32464	38516	38232	34036	
3163	32400	38484	38244	34040	
3164	32304	38508	38240	34076	
3165	32208	38512	38232	34068	
3166	32160	38500	38232	34080	
3167	32256	38520	38256	34064	
3168	32288	38508	38268	34076	
3169	32432	38496	38244	34060	
3170	32432	38520	38252	34088	
3171	32368	38508	38252	34096	
3172	32256	38536	38224	34088	
3173	32160	38532	38268	34072	
3174	32112	38532	38236	34052	
3175	32192	38528	38264	34112	
3176	32144	38548	38240	34100	
3177	32224	38540	38244	34128	
3178	32288	38536	38256	34116	
3179	32240	38532	38256	34144	
3180	32288	38548	38252	34132	
3181	32224	38544	38264	34144	
3182	32176	38544	38292	34108	
3183	32256	38532	38276	34160	
3184	32368	38544	38268	34140	
3185	32320	38556	38252	34136	
3186	32288	38568	38260	34164	
3187	32272	38544	38284	34176	
3188	32240	38560	38260	34164	
3189	32112	38580	38264	34140	
3190	32080	38548	38272	34176	
3191	32208	38544	38276	34216	
3192	32256	38552	38248	34228	
3193	32240	38576	38260	34188	
3194	32288	38536	38240	34200	
3195	32272	38536	38224	34252	
3196	32224	38540	38280	34240	
3197	32064	38568	38252	34192	
3198	32064	38552	38292	34180	
3199	32128	38544	38284	34216	
3200	32160	38552	38280	34212	
3201	32160	38560	38264	34208	
3202	32288	38544	38264	34196	
3203	32320	38552	38232	34208	
3204	32304	38552	38260	34220	
3205	32256	38532	38272	34208	
3206	32192	38552	38272	34200	
3207	32288	38576	38272	34208	
3208	32320	38560	38276	34224	
3209	32320	38560	38284	34208	
3210	32416	38544	38284	34184	
3211	32400	38536	38256	34152	
3212	32288	38524	38276	34160	
3213	32208	38544	38272	34124	
3214	32224	38540	38268	34124	
3215	32304	38536	38260	34112	
3216	32336	38536	38264	34128	
3217	32448	38500	38252	34128	
3218	32496	38520	38248	34100	
3219	32512	38512	38232	34124	
3220	32448	38516	38236	34120	
3221	32368	38496	38224	34100	
3222	32240	38516	38216	34100	
3223	32384	38520	38208	34092	
3224	32384	38520	38180	34064	
3225	32400	38520	38208	34128	
3226	32512	38500	38224	34132	
3227	32496	38520	38176	34100	
3228	32416	38548	38196	34144	
3229	32320	38540	38180	34136	
3230	32368	38524	38168	34108	
3231	32464	38548	38188	34140	
3232	32544	38560	38188	34136	
3233	32528	38508	38196	34112	
3234	32560	38532	38200	34132	
3235	32512	38520	38196	34128	
3236	32416	38516	38220	34124	
3237	32336	38576	38228	34136	
3238	32272	38512	38252	34124	
3239	32320	38548	38240	34156	
3240	32368	38544	38240	34120	
3241	32400	38532	38224	34132	
3242	32432	38544	38236	34156	
3243	32464	38548	38260	34132	
3244	32352	38540	38264	34144	
3245	32272	38520	38264	34128	
3246	32272	38520	38284	34120	
3247	32400	38540	38264	34112	
3248	32368	38508	38244	34104	
3249	32352	38516	38264	34088	
3250	32400	38520	38240	34132	
3251	32416	38524	38252	34124	
3252	32448	38552	38256	34140	
3253	32384	38548	38244	34124	
3254	32368	38536	38252	34124	
3255	32464	38556	38260	34144	
3256	32528	38552	38232	34140	
3257	32496	38548	38240	34164	
3258	32512	38560	38232	34176	
3259	32560	38580	38212	34136	
3260	32528	38548	38220	34156	
3261	32416	38564	38228	34164	
3262	32448	38556	38224	34172	
3263	32448	38568	38224	34228	
3264	32528	38612	38212	34204	
3265	32512	38600	38228	34208	
3266	32656	38600	38240	34172	
3267	32672	38580	38244	34224	
3268	32560	38588	38240	34204	
3269	32496	38576	38248	34200	
3270	32560	38592	38252	34204	
3271	32608	38616	38248	34176	
3272	32608	38588	38236	34160	
3273	32688	38576	38200	34180	
3274	32736	38592	38276	34148	
3275	32736	38548	38272	34172	
3276	32656	38608	38260	34164	
3277	32592	38560	38264	34188	
3278	32560	38568	38256	34168	
3279	32544	38556	38236	34180	
3280	32656	38564	38280	34148	
3281	32800	38556	38280	34160	
3282	32816	38576	38272	34148	
3283	32784	38556	38272	34132	
3284	32640	38548	38268	34148	
3285	32496	38544	38276	34148	
3286	32384	38528	38276	34184	
3287	32368	38532	38252	34176	
3288	32432	38516	38240	34168	
3289	32400	38528	38264	34120	
3290	32416	38484	38240	34156	
3291	32400	38520	38276	34168	
3292	32368	38504	38268	34168	
3293	32272	38512	38260	34148	
3294	32208	38512	38248	34136	
3295	32176	38500	38240	34116	
3296	32256	38536	38244	34156	
3297	32224	38528	38264	34160	
3298	32320	38516	38268	34132	
3299	32352	38536	38260	34128	
3300	32208	38552	38232	34104	
3301	32080	38544	38232	34108	
3302	32096	38536	38256	34100	
3303	32240	38536	38252	34108	
3304	32320	38536	38224	34128	
3305	32400	38540	38252	34124	
3306	32448	38508	38232	34136	
3307	32368	38524	38224	34156	
3308	32304	38548	38248	34144	
3309	32256	38540	38236	34180	
3310	32192	38524	38204	34152	
3311	32240	38504	38204	34160	
3312	32192	38544	38172	34152	
3313	32208	38544	38188	34168	
3314	32192	38516	38152	34144	
3315	32208	38548	38216	34168	
3316	32256	38568	38176	34152	
3317	32272	38588	38200	34184	
3318	32352	38572	38196	34180	
3319	32528	38532	38168	34176	
3320	32736	38540	38180	34200	
3321	33024	38560	38188	34168	
3322	33312	38568	38184	34204	
3323	33568	38564	38172	34168	
3324	33776	38580	38136	34204	
3325	33904	38524	38060	34220	
3326	34032	38564	38200	34172	
3327	33968	38548	38240	34176	
3328	33760	38584	38236	34116	
3329	33632	38564	38224	34152	
3330	33440	38616	38208	34168	
3331	33072	38536	38168	34172	
3332	32544	38600	38208	34128	
3333	31952	38536	38192	34164	
3334	31504	38560	38212	34152	
3335	31168	38560	38212	34176	
3336	30976	38536	38216	34144	
3337	30672	38540	38216	34156	
3338	30336	38504	38216	34176	
3339	30000	38516	38172	34144	
3340	29680	38516	38184	34172	
3341	29600	38532	38208	34160	
3342	29776	38528	38188	34148	
3343	30048	38488	38180	34140	
3344	30496	38528	38148	34156	
3345	31024	38512	38188	34136	
3346	31520	38516	38204	34148	
3347	32032	38516	38152	34148	
3348	32352	38496	38144	34152	
3349	32464	38520	38180	34136	
3350	32560	38532	38184	34136	
3351	32656	38544	38184	34184	
3352	32800	38504	38192	34160	
3353	32832	38520	38180	34176	
3354	32928	38556	38196	34204	
3355	32928	38520	38208	34212	
3356	32960	38548	38168	34216	
3357	32928	38520	38200	34204	
3358	32896	38552	38184	34204	
3359	32928	38536	38204	34244	
3360	33008	38540	38184	34236	
3361	33056	38544	38212	34228	
3362	32992	38548	38208	34216	
3363	32912	38572	38224	34212	
3364	32880	38584	38240	34232	
3365	32784	38580	38244	34224	
3366	32672	38572	38228	34216	
3367	32592	38600	38240	34184	
3368	32704	38560	38240	34164	
3369	32688	38604	38212	34176	
3370	32752	38572	38232	34136	
3371	32672	38572	38236	34144	
3372	32624	38564	38252	34128	
3373	32592	38580	38252	34112	
3374	32560	38620	38252	34072	
3375	32512	38608	38260	34060	
3376	32592	38624	38280	34080	
3377	32528	38640	38284	34064	
3378	32592	38628	38304	34064	
3379	32560	38632	38292	34072	
3380	32592	38592	38292	34048	
3381	32544	38576	38308	34048	
3382	32544	38556	38284	34120	
3383	32608	38536	38304	34112	
3384	32704	38520	38304	34124	
3385	32672	38520	38304	34136	
3386	32608	38512	38300	34176	
3387	32544	38484	38268	34244	
3388	32448	38492	38296	34184	
3389	32368	38480	38272	34196	
3390	32352	38532	38276	34244	
3391	32432	38504	38260	34272	
3392	32464	38524	38280	34284	
3393	32544	38524	38256	34272	
3394	32672	38552	38296	34272	
3395	32672	38536	38288	34312	
3396	32736	38552	38284	34280	
3397	32688	38564	38312	34296	
3398	32688	38580	38324	34316	
3399	32720	38580	38308	34324	
3400	32880	38584	38344	34312	
3401	32896	38576	38348	34300	
3402	32944	38580	38336	34284	
3403	32944	38608	38336	34288	
3404	32880	38612	38360	34256	
3405	32768	38612	38320	34280	
3406	32720	38584	38324	34312	
3407	32768	38588	38312	34292	
3408	32832	38656	38308	34280	
3409	32864	38620	38308	34308	
3410	32880	38600	38312	34288	
3411	32864	38608	38268	34288	
3412	32912	38612	38272	34324	
3413	32896	38632	38236	34328	
3414	32864	38616	38232	34312	
3415	32848	38628	38244	34276	
3416	32896	38588	38228	34256	
3417	32944	38612	38216	34244	
3418	32928	38632	38212	34232	
3419	32928	38624	38184	34236	
3420	32896	38608	38180	34180	
3421	32768	38624	38184	34220	
3422	32640	38604	38188	34196	
3423	32624	38604	38184	34160	
3424	32640	38572	38176	34144	
3425	32704	38564	38136	34108	
3426	32784	38564	38148	34120	
3427	32864	38576	38184	34108	
3428	32848	38544	38156	34080	
3429	32768	38536	38136	34084	
3430	32720	38556	38176	34092	
3431	32704	38556	38192	34116	
3432	32688	38528	38168	34128	
3433	32784	38540	38160	34132	
3434	32752	38520	38156	34136	
3435	32656	38504	38128	34148	
3436	32624	38524	38164	34180	
3437	32592	38516	38128	34176	
3438	32448	38476	38120	34172	
3439	32464	38520	38104	34196	
3440	32544	38524	38168	34184	
3441	32560	38516	38124	34192	
3442	32576	38524	38100	34228	
3443	32528	38516	38100	34232	
3444	32368	38524	38152	34232	
3445	32240	38516	38172	34220	
3446	32112	38540	38176	34196	
3447	32128	38508	38176	34196	
3448	32144	38544	38184	34200	
3449	32144	38532	38192	34176	
3450	32160	38532	38196	34180	
3451	32128	38564	38152	34176	
3452	31936	38528	38200	34180	
3453	31808	38524	38196	34148	
3454	31696	38520	38240	34152	
3455	31680	38524	38216	34136	
3456	31760	38532	38228	34164	
3457	31824	38520	38228	34192	
3458	31808	38548	38232	34168	
3459	31744	38536	38244	34164	
3460	31632	38548	38220	34148	
3461	31632	38512	38244	34148	
3462	31504	38544	38224	34168	
3463	31584	38544	38244	34212	
3464	31632	38544	38248	34172	
3465	31744	38532	38236	34224	
3466	31792	38536	38248	34216	
3467	31776	38532	38260	34236	
3468	31744	38592	38232	34280	
3469	31632	38584	38252	34180	
3470	31600	38580	38240	34224	
3471	31568	38544	38280	34228	
3472	31712	38568	38248	34236	
3473	31808	38584	38252	34268	
3474	31872	38576	38244	34276	
3475	31856	38568	38236	34292	
3476	31808	38560	38244	34248	
3477	31696	38560	38248	34312	
3478	31616	38544	38228	34292	
3479	31680	38568	38252	34276	
3480	31760	38592	38244	34264	
3481	31888	38556	38236	34280	
3482	31936	38568	38204	34284	
3483	31952	38540	38212	34268	
3484	31952	38556	38196	34288	
3485	31936	38548	38232	34312	
3486	31872	38564	38228	34308	
3487	31952	38540	38236	34284	
3488	32016	38540	38236	34304	
3489	32112	38524	38236	34312	
3490	32096	38520	38224	34308	
3491	32160	38516	38236	34312	
3492	32160	38500	38236	34320	
3493	32128	38544	38208	34320	
3494	32048	38508	38208	34288	
3495	32016	38512	38204	34308	
3496	32096	38480	38184	34288	
3497	32144	38504	38176	34312	
3498	32176	38492	38204	34196	
3499	32240	38508	38192	34252	
3500	32240	38520	38196	34204	
3501	32208	38500	38184	34180	
3502	32112	38496	38160	34188	
3503	32144	38508	38200	34152	
3504	32224	38512	38160	34148	
3505	32368	38528	38180	34156	
3506	32368	38504	38160	34120	
3507	32336	38516	38176	34148	
3508	32304	38504	38176	34160	
3509	32144	38480	38160	34176	
3510	32112	38496	38152	34188	
3511	32144	38492	38148	34140	
3512	32272	38488	38096	34180	
3513	32336	38496	38120	34148	
3514	32368	38532	38100	34168	
3515	32400	38524	38088	34164	
3516	32368	38532	38104	34180	
3517	32192	38528	38104	34220	
3518	32048	38524	38148	34248	
3519	32112	38528	38144	34304	
3520	32208	38512	38156	34280	
3521	32320	38548	38128	34252	
3522	32384	38524	38180	34272	
3523	32352	38564	38152	34284	
3524	32304	38568	38168	34260	
3525	32144	38576	38176	34288	
3526	32128	38556	38160	34272	
3527	32048	38568	38188	34272	
3528	32080	38580	38200	34280	
3529	32176	38588	38200	34260	
3530	32160	38636	38192	34236	
3531	32224	38632	38212	34252	
3532	32240	38616	38212	34240	
3533	32064	38620	38212	34288	
3534	32080	38672	38236	34272	
3535	32048	38668	38220	34304	
3536	32112	38636	38200	34264	
3537	32144	38664	38212	34312	
3538	32256	38668	38216	34304	
3539	32304	38664	38216	34340	
3540	32272	38680	38212	34328	
3541	32080	38680	38228	34320	
3542	32016	38684	38208	34352	
3543	32032	38708	38220	34368	
3544	32208	38712	38196	34376	
3545	32352	38708	38220	34356	
3546	32304	38672	38200	34340	
3547	32288	38684	38200	34400	
3548	32288	38672	38204	34372	
3549	32256	38668	38180	34356	
3550	32160	38672	38160	34396	
3551	32256	38644	38108	34372	
3552	32336	38644	38144	34368	
3553	32320	38656	38152	34356	
3554	32352	38652	38156	34352	
3555	32336	38620	38148	34380	
3556	32224	38636	38120	34340	
3557	32240	38612	38100	34376	
3558	32208	38608	38116	34356	
3559	32176	38600	38116	34360	
3560	32240	38616	38128	34380	
3561	32336	38600	38116	34344	
3562	32416	38596	38104	34316	
3563	32544	38588	38092	34316	
3564	32448	38584	38104	34312	
3565	32368	38572	38104	34348	
3566	32288	38576	38140	34308	
3567	32272	38560	38136	34320	
3568	32336	38572	38128	34276	
3569	32448	38560	38132	34304	
3570	32432	38556	38128	34352	
3571	32416	38548	38124	34300	
3572	32400	38544	38112	34332	
3573	32416	38528	38152	34300	
3574	32336	38532	38124	34324	
3575	32512	38516	38120	34304	
3576	32496	38544	38120	34320	
3577	32544	38524	38104	34288	
3578	32576	38524	38088	34276	
3579	32480	38540	38160	34268	
3580	32416	38532	38084	34308	
3581	32336	38540	38092	34280	
3582	32288	38536	38096	34312	
3583	32336	38516	38124	34308	
3584	32448	38556	38100	34276	
3585	32608	38556	38080	34304	
3586	32592	38584	38108	34304	
3587	32704	38572	38144	34308	
3588	32672	38572	38088	34296	
3589	32528	38576	38144	34292	
3590	32448	38580	38144	34328	
3591	32464	38588	38116	34328	
3592	32544	38628	38084	34288	
3593	32512	38612	38116	34304	
3594	32640	38592	38136	34324	
3595	32608	38600	38096	34352	
3596	32480	38616	38144	34348	
3597	32256	38616	38144	34340	
3598	32256	38600	38100	34336	
3599	32320	38604	38104	34360	
3600	32480	38608	38092	34332	
3601	32448	38572	38112	34376	
3602	32496	38552	38060	34380	
3603	32448	38604	38040	34416	
3604	32528	38572	38036	34416	
3605	32432	38620	38036	34428	
3606	32368	38560	38048	34400	
3607	32304	38572	38012	34432	
3608	32384	38604	38036	34444	
3609	32384	38580	38008	34456	
3610	32352	38572	37996	34460	
3611	32336	38600	38024	34444	
3612	32160	38620	38028	34460	
3613	32016	38664	38020	34456	
3614	32096	38616	38024	34412	
3615	32080	38640	38016	34436	
3616	32144	38656	38008	34456	
3617	32224	38628	38020	34428	
3618	32208	38616	38024	34444	
3619	32256	38600	38020	34416	
3620	32288	38624	38040	34388	
3621	32208	38588	38036	34392	
3622	32128	38576	38060	34376	
3623	32128	38568	38044	34388	
3624	32192	38568	38036	34336	
3625	32192	38548	38052	34332	
3626	32240	38576	38052	34372	
3627	32288	38536	38064	34340	
3628	32288	38548	38084	34328	
3629	32256	38548	38100	34340	
3630	32176	38532	38100	34324	
3631	32224	38540	38120	34336	
3632	32288	38560	38132	34360	
3633	32352	38548	38112	34396	
3634	32352	38568	38148	34380	
3635	32400	38572	38180	34360	
3636	32416	38584	38112	34352	
3637	32336	38584	38152	34412	
3638	32336	38572	38160	34396	
3639	32400	38620	38156	34408	
3640	32544	38588	38184	34428	
3641	32816	38636	38172	34360	
3642	33056	38652	38148	34440	
3643	33280	38636	38164	34416	
3644	33568	38648	38172	34436	
3645	33728	38640	38172	34424	
3646	33856	38580	38164	34420	
3647	34112	38636	38212	34432	
3648	34400	38648	38172	34440	
3649	34608	38644	38200	34448	
3650	34384	38656	38200	34408	
3651	34016	38668	38176	34448	
3652	33792	38656	38136	34444	
3653	33376	38684	38176	34448	
3654	32944	38652	38148	34448	
3655	32400	38656	38132	34460	
3656	32032	38644	38156	34464	
3657	31712	38608	38156	34452	
3658	31408	38592	38144	34448	
3659	31152	38596	38112	34444	
3660	30976	38604	38160	34464	
3661	30576	38604	38160	34444	
3662	30224	38564	38112	34444	
3663	30096	38584	38112	34408	
3664	30192	38524	38064	34420	
3665	30400	38520	38028	34452	
3666	30768	38520	38040	34412	
3667	31088	38492	38036	34400	
3668	31584	38524	38020	34408	
3669	31904	38492	38028	34416	
3670	32256	38496	38024	34408	
3671	32480	38472	38008	34352	
3672	32784	38476	37992	34380	
3673	32944	38480	38008	34364	
3674	32912	38500	38008	34364	
3675	33056	38488	37964	34320	
3676	32992	38480	38004	34296	
3677	32864	38496	37924	34296	
3678	32832	38472	37972	34256	
3679	32864	38464	38000	34256	
3680	32976	38476	37984	34280	
3681	32976	38484	37932	34280	
3682	32960	38464	38012	34312	
3683	32976	38480	38008	34284	
3684	32832	38480	37964	34296	
3685	32816	38484	38024	34304	
3686	32768	38484	38028	34328	
3687	32656	38488	38048	34356	
3688	32688	38496	38032	34372	
3689	32624	38504	38036	34352	
3690	32624	38512	38028	34364	
3691	32592	38516	38028	34356	
3692	32544	38548	38024	34388	
3693	32560	38572	38008	34384	
3694	32496	38536	37996	34396	
3695	32528	38564	38000	34400	
3696	32624	38568	38028	34396	
3697	32704	38592	38032	34444	
3698	32624	38596	38004	34480	
3699	32656	38612	38056	34476	
3700	32560	38628	38056	34548	
3701	32464	38648	38040	34536	
3702	32416	38688	38068	34576	
3703	32352	38656	38036	34592	
3704	32464	38672	38040	34584	
3705	32512	38660	38048	34620	
3706	32544	38696	38056	34636	
3707	32592	38676	38080	34624	
3708	32640	38672	38072	34644	
3709	32512	38704	38072	34616	
3710	32512	38720	38088	34632	
3711	32560	38716	38072	34596	
3712	32560	38704	38092	34584	
3713	32656	38688	38144	34596	
3714	32720	38680	38124	34588	
3715	32784	38700	38144	34564	
3716	32784	38700	38156	34564	
3717	32656	38696	38172	34552	
3718	32640	38664	38176	34532	
3719	32672	38652	38188	34540	
3720	32720	38632	38192	34516	
3721	32848	38672	38200	34544	
3722	32992	38672	38196	34520	
3723	32960	38676	38208	34492	
3724	32992	38640	38180	34508	
3725	32832	38608	38212	34504	
3726	32800	38640	38196	34476	
3727	32768	38612	38180	34472	
3728	32896	38616	38156	34484	
3729	32960	38584	38148	34488	
3730	33056	38596	38064	34492	
3731	33088	38604	38060	34480	
3732	33008	38588	38064	34476	
3733	32976	38572	38044	34480	
3734	32944	38580	38036	34476	
3735	33008	38560	38040	34456	
3736	33024	38548	38000	34460	
3737	33072	38536	38008	34448	
3738	33136	38540	37984	34424	
3739	33136	38500	37964	34400	
3740	33136	38516	37996	34376	
3741	33040	38516	37980	34344	
3742	32976	38496	37948	34324	
3743	32912	38472	37992	34292	
3744	32896	38444	37976	34256	
3745	32960	38440	37956	34208	
3746	33072	38436	37952	34172	
3747	33008	38452	37976	34180	
3748	33040	38416	37932	34196	
3749	32912	38448	37964	34176	
3750	32816	38440	37956	34132	
3751	32800	38432	37964	34172	
3752	32896	38460	37952	34184	
3753	32896	38468	37944	34184	
3754	32880	38472	37972	34228	
3755	32752	38464	37952	34272	
3756	32720	38512	37956	34264	
3757	32640	38516	37940	34304	
3758	32448	38524	37928	34320	
3759	32496	38524	37940	34356	
3760	32544	38548	37936	34392	
3761	32464	38548	37980	34400	
3762	32384	38600	37996	34436	
3763	32464	38596	37992	34436	
3764	32416	38568	38016	34440	
3765	32368	38568	38004	34424	
3766	32192	38612	38000	34424	
3767	32112	38644	37996	34436	
3768	32032	38628	38012	34456	
3769	31984	38660	38016	34464	
3770	31984	38624	38056	34472	
3771	32016	38648	38044	34468	
3772	31840	38656	38052	34460	
3773	31824	38668	38072	34480	
3774	31696	38672	38048	34488	
3775	31632	38648	38092	34468	
3776	31712	38628	38088	34476	
3777	31728	38620	38120	34476	
3778	31760	38640	38124	34428	
3779	31712	38620	38132	34488	
3780	31664	38616	38132	34472	
3781	31664	38620	38160	34476	
3782	31488	38628	38132	34472	
3783	31456	38596	38184	34464	
3784	31536	38600	38152	34472	
3785	31552	38604	38148	34484	
3786	31696	38600	38160	34480	
3787	31696	38588	38144	34476	
3788	31696	38572	38164	34468	
3789	31600	38576	38152	34500	
3790	31536	38588	38112	34480	
3791	31600	38568	38128	34520	
3792	31728	38584	38156	34496	
3793	31808	38580	38184	34456	
3794	31888	38560	38144	34476	
3795	31888	38572	38148	34488	
3796	31872	38576	38148	34468	
3797	31792	38596	38144	34456	
3798	31824	38584	38088	34476	
3799	31808	38616	38164	34464	
3800	31824	38588	38152	34452	
3801	31792	38616	38176	34432	
3802	31872	38660	38168	34428	
3803	31936	38668	38168	34436	
3804	31952	38660	38120	34380	
3805	31888	38640	38172	34372	
3806	31696	38680	38152	34412	
3807	31760	38664	38172	34360	
3808	31792	38672	38108	34368	
3809	31904	38680	38144	34372	
3810	31968	38680	38132	34360	
3811	32064	38660	38176	34352	
3812	32064	38672	38164	34348	
3813	32048	38688	38180	34352	
3814	32048	38668	38108	34372	
3815	32016	38636	38184	34376	
3816	32128	38620	38168	34344	
3817	32208	38620	38192	34388	
3818	32240	38588	38164	34392	
3819	32208	38612	38152	34376	
3820	32240	38600	38172	34360	
3821	32304	38560	38192	34356	
3822	32240	38532	38144	34352	
3823	32288	38544	38192	34332	
3824	32416	38544	38200	34292	
3825	32528	38496	38228	34288	
3826	32576	38504	38200	34276	
3827	32608	38512	38224	34252	
3828	32608	38488	38228	34288	
3829	32528	38492	38224	34260	
3830	32352	38508	38232	34244	
3831	32320	38524	38196	34264	
3832	32336	38524	38208	34232	
3833	32400	38540	38188	34264	
3834	32496	38520	38172	34264	
3835	32496	38552	38164	34272	
3836	32448	38536	38192	34280	
3837	32352	38556	38188	34288	
3838	32304	38572	38184	34312	
3839	32304	38552	38196	34300	
3840	32352	38580	38196	34284	
3841	32432	38600	38232	34280	
3842	32560	38560	38220	34264	
3843	32560	38552	38224	34320	
3844	32544	38600	38252	34272	
3845	32448	38584	38244	34264	
3846	32384	38576	38276	34292	
3847	32304	38572	38228	34252	
3848	32368	38592	38268	34260	
3849	32400	38584	38248	34252	
3850	32320	38588	38264	34276	
3851	32432	38568	38248	34268	
3852	32496	38576	38280	34284	
3853	32320	38612	38236	34260	
3854	32240	38624	38252	34308	
3855	32272	38576	38252	34308	
3856	32256	38584	38248	34332	
3857	32352	38640	38236	34340	
3858	32304	38604	38240	34336	
3859	32336	38648	38220	34352	
3860	32272	38624	38240	34328	
3861	32144	38596	38216	34340	
3862	32080	38648	38224	34376	
3863	31984	38672	38220	34316	
3864	32064	38632	38196	34384	
3865	32144	38596	38188	34340	
3866	32192	38584	38156	34316	
3867	32192	38604	38196	34320	
3868	32192	38580	38192	34360	
3869	32128	38604	38188	34332	
3870	32096	38624	38188	34360	
3871	32080	38588	38200	34320	
3872	32176	38584	38172	34304	
3873	32240	38556	38184	34296	
3874	32304	38548	38148	34304	
3875	32288	38556	38168	34312	
3876	32256	38544	38192	34308	
3877	32160	38504	38192	34272	
3878	32096	38524	38188	34236	
3879	32128	38516	38196	34240	
3880	32288	38512	38216	34240	
3881	32256	38488	38188	34276	
3882	32384	38488	38200	34216	
3883	32400	38472	38216	34248	
3884	32368	38480	38180	34216	
3885	32416	38480	38220	34208	
3886	32256	38468	38204	34256	
3887	32224	38472	38192	34240	
3888	32288	38464	38184	34236	
3889	32400	38488	38208	34256	
3890	32448	38452	38216	34288	
3891	32432	38492	38224	34280	
3892	32416	38464	38192	34292	
3893	32272	38472	38208	34260	
3894	32224	38480	38196	34296	
3895	32192	38516	38216	34308	
3896	32240	38492	38212	34300	
3897	32320	38512	38220	34356	
3898	32304	38480	38196	34296	
3899	32352	38496	38208	34272	
3900	32352	38516	38236	34288	
3901	32224	38540	38220	34292	
3902	32160	38536	38252	34312	
3903	32144	38536	38256	34308	
3904	32192	38532	38224	34276	
3905	32208	38540	38224	34292	
3906	32320	38512	38224	34272	
3907	32320	38540	38240	34292	
3908	32304	38532	38220	34284	
3909	32144	38540	38208	34252	
3910	32048	38556	38204	34280	
3911	32032	38572	38236	34256	
3912	32128	38540	38212	34256	
3913	32288	38584	38208	34260	
3914	32256	38536	38196	34228	
3915	32336	38576	38204	34276	
3916	32384	38564	38188	34284	
3917	32368	38576	38216	34284	
3918	32336	38580	38184	34272	
3919	32288	38544	38192	34272	
3920	32416	38568	38188	34280	
3921	32592	38552	38196	34292	
3922	32624	38568	38204	34280	
3923	32640	38572	38192	34272	
3924	32544	38564	38188	34264	
3925	32480	38568	38168	34324	
3926	32416	38596	38168	34304	
3927	32416	38600	38188	34276	
3928	32384	38600	38192	34308	
3929	32400	38568	38176	34304	
3930	32368	38572	38160	34256	
3931	32432	38576	38196	34248	
3932	32464	38588	38184	34272	
3933	32512	38588	38168	34256	
3934	32400	38600	38168	34300	
3935	32336	38596	38188	34324	
3936	32384	38592	38176	34304	
3937	32480	38592	38172	34252	
3938	32480	38628	38192	34272	
3939	32496	38604	38172	34268	
3940	32448	38600	38172	34288	
3941	32288	38592	38160	34288	
3942	32176	38580	38120	34284	
3943	32128	38596	38136	34288	
3944	32160	38596	38148	34304	
3945	32096	38612	38144	34320	
3946	32192	38600	38172	34328	
3947	32144	38572	38160	34320	
3948	32144	38568	38160	34344	
3949	32080	38576	38168	34340	
3950	32000	38572	38176	34368	
3951	31984	38564	38180	34336	
3952	32000	38564	38152	34336	
3953	32128	38556	38176	34312	
3954	32208	38552	38176	34304	
3955	32240	38532	38172	34320	
3956	32304	38540	38160	34328	
3957	32256	38544	38164	34292	
3958	32160	38544	38176	34292	
3959	32144	38532	38184	34304	
3960	32192	38540	38152	34312	
3961	32272	38524	38200	34260	
3962	32320	38532	38188	34284	
3963	32320	38516	38204	34316	
3964	32240	38524	38192	34272	
3965	32128	38524	38176	34292	
3966	32064	38512	38208	34312	
3967	32064	38528	38204	34288	
3968	32144	38524	38184	34284	
3969	32160	38520	38196	34336	
3970	32272	38548	38168	34276	
3971	32336	38532	38192	34280	
3972	32320	38520	38188	34288	
3973	32384	38540	38184	34288	
3974	32432	38524	38188	34320	
3975	32592	38540	38160	34284	
3976	32928	38540	38168	34312	
3977	33232	38540	38168	34308	
3978	33616	38572	38164	34284	
3979	33872	38556	38184	34324	
3980	34160	38556	38200	34300	
3981	34288	38524	38164	34308	
3982	34368	38560	38188	34300	
3983	34160	38564	38156	34264	
3984	33936	38576	38152	34288	
3985	33776	38568	38188	34296	
3986	33360	38612	38200	34272	
3987	32832	38600	38164	34288	
3988	32224	38572	38180	34268	
3989	31760	38616	38180	34268	
3990	31232	38612	38200	34236	
3991	30880	38560	38180	34272	
3992	30672	38576	38164	34280	
3993	30544	38576	38184	34276	
3994	30288	38600	38180	34276	
3995	29984	38644	38164	34264	
3996	29840	38644	38180	34272	
3997	29744	38644	38148	34272	
3998	29792	38604	38188	34296	
3999	30224	38644	38168	34328	
4000	30784	38608	38108	34308	
4001	31216	38616	38180	34288	
4002	31744	38640	38140	34332	
4003	32128	38588	38156	34300	
4004	32480	38584	38164	34280	
4005	32576	38616	38168	34280	
4006	32560	38600	38184	34304	
4007	32624	38600	38156	34296	
4008	32736	38644	38116	34312	
4009	32848	38660	38140	34312	
4010	32880	38624	38136	34276	
4011	32992	38660	38168	34292	
4012	32976	38628	38136	34300	
4013	32864	38632	38156	34276	
4014	32704	38612	38172	34312	
4015	32704	38624	38168	34276	
