# OpenSignals Text File Format. Version 1
# {"8C:F6:81:6C:CD:1C": {"position": 0, "device": "cardiobanplux", "device name": "8C:F6:81:6C:CD:1C", "device connection": "BTH8C:F6:81:6C:CD:1C", "sampling rate": 400, "resolution": [16, 16, 16, 16], "firmware version": 1027, "comments": "", "keywords": "", "mode": 0, "sync interval": 2, "date": "2024-1-15", "time": "16:19:16.143", "channels": [1, 2, 3, 4], "sensor": ["ECG", "gACC", "gACC", "gACC"], "label": ["ECG", "ACC_X", "ACC_Y", "ACC_Z"], "column": ["nSeq", "ECG", "ACC_X", "ACC_Y", "ACC_Z"], "special": [{}, {}, {}, {}], "digital IO": []}}
# EndOfHeader
0	31776	25188	31556	35508	
1	31824	25188	31560	35528	
2	31824	25208	31532	35496	
3	31808	25236	31552	35508	
4	31824	25216	31564	35524	
5	31696	25192	31540	35544	
6	31568	25188	31564	35552	
7	31472	25220	31564	35564	
8	31376	25220	31564	35560	
9	31520	25212	31536	35548	
10	31744	25220	31532	35576	
11	31872	25216	31584	35564	
12	32048	25216	31548	35576	
13	32128	25252	31552	35576	
14	32304	25268	31572	35616	
15	32448	25240	31544	35596	
16	32400	25216	31556	35572	
17	32464	25228	31576	35588	
18	32544	25264	31564	35572	
19	32720	25284	31568	35592	
20	32848	25256	31552	35600	
21	32880	25256	31560	35572	
22	33040	25264	31556	35600	
23	33184	25260	31560	35560	
24	33152	25232	31540	35592	
25	33104	25260	31560	35568	
26	33072	25280	31564	35604	
27	33088	25304	31564	35576	
28	32976	25252	31556	35584	
29	32928	25284	31560	35596	
30	32832	25248	31556	35600	
31	32848	25252	31560	35588	
32	32832	25308	31580	35604	
33	32784	25328	31564	35600	
34	32992	25276	31552	35592	
35	33376	25288	31548	35580	
36	33632	25252	31544	35592	
37	33424	25296	31540	35556	
38	32800	25252	31520	35548	
39	32784	25232	31516	35568	
40	33200	25236	31528	35508	
41	33456	25252	31508	35508	
42	33456	25244	31492	35520	
43	32704	25252	31488	35532	
44	31424	25216	31496	35536	
45	31136	25240	31492	35544	
46	31456	25196	31512	35564	
47	31664	25264	31524	35572	
48	31504	25268	31568	35608	
49	31152	25272	31540	35604	
50	31360	25260	31548	35620	
51	32752	25272	31560	35680	
52	34192	25220	31616	35708	
53	36368	25232	31644	35732	
54	39040	25192	31716	35796	
55	40624	25220	31772	35780	
56	40576	25152	31828	35796	
57	39856	25132	31868	35752	
58	38672	25204	31796	35604	
59	37376	25304	31624	35520	
60	36128	25280	31464	35396	
61	35104	25244	31280	35356	
62	34352	25148	31252	35372	
63	33392	25148	31300	35356	
64	32656	25132	31328	35268	
65	32064	25160	31352	35176	
66	31568	25188	31364	35164	
67	31264	25240	31384	35248	
68	31040	25308	31384	35428	
69	30960	25340	31468	35460	
70	30976	25384	31608	35444	
71	30864	25380	31728	35448	
72	30880	25436	31744	35588	
73	30880	25468	31712	35708	
74	30848	25472	31716	35812	
75	30864	25516	31668	35824	
76	30848	25460	31692	35812	
77	30928	25400	31708	35740	
78	30976	25376	31680	35624	
79	31056	25332	31676	35608	
80	31216	25276	31612	35568	
81	31168	25236	31544	35536	
82	31248	25136	31508	35520	
83	31232	25120	31452	35524	
84	31248	25084	31456	35480	
85	31296	25060	31480	35432	
86	31376	25056	31476	35412	
87	31344	25004	31484	35372	
88	31376	25068	31492	35380	
89	31408	25064	31488	35388	
90	31392	25096	31492	35364	
91	31328	25108	31472	35424	
92	31280	25192	31516	35360	
93	31328	25212	31528	35384	
94	31392	25296	31536	35372	
95	31456	25344	31556	35448	
96	31520	25360	31548	35508	
97	31488	25376	31524	35560	
98	31440	25388	31520	35580	
99	31456	25376	31516	35660	
100	31472	25380	31520	35660	
101	31440	25376	31512	35660	
102	31360	25336	31556	35696	
103	31392	25364	31532	35752	
104	31408	25312	31588	35696	
105	31328	25324	31584	35692	
106	31328	25216	31604	35692	
107	31360	25240	31612	35704	
108	31312	25228	31600	35664	
109	31296	25216	31580	35672	
110	31280	25224	31568	35632	
111	31296	25180	31572	35624	
112	31296	25172	31544	35588	
113	31280	25208	31556	35596	
114	31296	25188	31528	35560	
115	31296	25200	31524	35536	
116	31328	25208	31536	35564	
117	31376	25216	31496	35560	
118	31456	25248	31500	35540	
119	31520	25296	31500	35468	
120	31536	25328	31500	35496	
121	31680	25348	31480	35516	
122	31664	25344	31488	35504	
123	31632	25308	31488	35556	
124	31648	25328	31496	35496	
125	31616	25320	31492	35496	
126	31728	25348	31500	35520	
127	31776	25284	31512	35524	
128	31760	25288	31516	35488	
129	31808	25284	31488	35504	
130	31648	25316	31556	35504	
131	31680	25316	31532	35548	
132	31696	25320	31548	35536	
133	31648	25328	31540	35588	
134	31648	25336	31548	35568	
135	31696	25328	31548	35592	
136	31680	25284	31552	35588	
137	31584	25276	31564	35592	
138	31456	25260	31556	35596	
139	31408	25224	31568	35608	
140	31360	25192	31556	35616	
141	31408	25168	31568	35596	
142	31360	25176	31540	35580	
143	31472	25180	31524	35536	
144	31456	25216	31524	35472	
145	31504	25200	31504	35476	
146	31632	25220	31508	35500	
147	31664	25216	31524	35520	
148	31680	25220	31552	35524	
149	31792	25224	31516	35516	
150	31888	25224	31516	35512	
151	31968	25240	31524	35568	
152	32016	25220	31524	35532	
153	32112	25236	31516	35596	
154	32080	25204	31524	35520	
155	32112	25220	31512	35488	
156	32176	25244	31520	35508	
157	32208	25224	31528	35496	
158	32288	25256	31524	35500	
159	32384	25224	31548	35500	
160	32416	25192	31548	35524	
161	32512	25220	31592	35520	
162	32560	25208	31556	35488	
163	32576	25220	31564	35500	
164	32672	25228	31580	35504	
165	32784	25192	31548	35500	
166	32800	25196	31552	35484	
167	32912	25220	31524	35480	
168	32864	25276	31524	35484	
169	32832	25280	31520	35520	
170	32832	25272	31532	35536	
171	32784	25264	31512	35544	
172	32832	25260	31520	35576	
173	32848	25320	31524	35552	
174	32928	25320	31512	35560	
175	32912	25328	31524	35600	
176	33008	25328	31548	35616	
177	32992	25324	31544	35616	
178	33040	25328	31528	35616	
179	33056	25312	31532	35624	
180	33056	25312	31508	35588	
181	33088	25308	31532	35596	
182	33072	25284	31520	35604	
183	33024	25260	31508	35584	
184	32992	25312	31536	35616	
185	33024	25308	31536	35576	
186	32992	25304	31544	35584	
187	33024	25264	31544	35568	
188	33008	25296	31548	35600	
189	32976	25296	31552	35596	
190	32960	25280	31548	35600	
191	33024	25312	31524	35592	
192	33088	25232	31528	35604	
193	33136	25260	31544	35608	
194	33152	25256	31564	35596	
195	33104	25300	31532	35600	
196	33104	25224	31536	35544	
197	33104	25288	31532	35604	
198	33136	25296	31540	35612	
199	33136	25296	31552	35592	
200	33104	25308	31528	35596	
201	33040	25288	31516	35592	
202	33024	25276	31536	35576	
203	32960	25244	31516	35620	
204	32960	25248	31512	35588	
205	32976	25268	31512	35612	
206	32944	25240	31516	35604	
207	32944	25240	31528	35592	
208	32944	25224	31532	35524	
209	32896	25204	31520	35536	
210	32864	25228	31512	35584	
211	32800	25280	31532	35520	
212	32880	25224	31548	35560	
213	32784	25212	31548	35592	
214	32864	25264	31528	35536	
215	32944	25276	31544	35548	
216	32816	25224	31544	35564	
217	32656	25284	31556	35572	
218	32544	25248	31544	35580	
219	32384	25228	31548	35556	
220	32096	25224	31548	35592	
221	32016	25200	31544	35600	
222	31936	25196	31532	35588	
223	31936	25200	31548	35620	
224	31856	25216	31540	35572	
225	31728	25196	31556	35596	
226	31632	25200	31556	35572	
227	31536	25204	31568	35592	
228	31456	25212	31548	35588	
229	31344	25196	31592	35612	
230	31248	25196	31564	35576	
231	31472	25192	31552	35604	
232	31616	25220	31556	35576	
233	31792	25224	31540	35596	
234	31984	25208	31528	35608	
235	32128	25244	31544	35572	
236	32176	25212	31536	35560	
237	32272	25268	31528	35556	
238	32448	25236	31520	35528	
239	32464	25248	31552	35540	
240	32544	25272	31528	35556	
241	32672	25252	31556	35528	
242	32800	25216	31532	35572	
243	32848	25240	31540	35588	
244	32880	25252	31528	35556	
245	32944	25272	31536	35568	
246	32944	25256	31516	35584	
247	32960	25260	31524	35564	
248	32928	25272	31512	35604	
249	32864	25264	31516	35584	
250	32832	25276	31500	35548	
251	32816	25228	31520	35568	
252	32864	25280	31512	35592	
253	32880	25264	31520	35560	
254	32816	25276	31540	35592	
255	32816	25264	31524	35572	
256	32928	25264	31512	35540	
257	33168	25272	31512	35560	
258	33472	25248	31524	35536	
259	33440	25256	31520	35520	
260	32864	25284	31504	35500	
261	32096	25324	31520	35516	
262	31952	25292	31520	35492	
263	32192	25304	31524	35496	
264	32352	25252	31496	35488	
265	32192	25276	31492	35464	
266	31488	25280	31488	35488	
267	30688	25292	31524	35492	
268	31072	25328	31520	35508	
269	31552	25284	31508	35512	
270	31808	25228	31520	35528	
271	31888	25260	31536	35576	
272	32112	25304	31548	35540	
273	32992	25276	31568	35560	
274	34384	25296	31576	35596	
275	36032	25304	31576	35600	
276	38560	25288	31672	35728	
277	40624	25340	31672	35720	
278	41248	25336	31676	35612	
279	40800	25336	31688	35552	
280	39872	25304	31656	35520	
281	38672	25200	31528	35496	
282	37376	25128	31400	35472	
283	36224	25076	31292	35480	
284	35088	25088	31244	35488	
285	34224	25132	31296	35392	
286	33328	25160	31364	35348	
287	32512	25160	31400	35276	
288	31808	25200	31480	35276	
289	31408	25248	31468	35304	
290	31040	25256	31436	35388	
291	30896	25292	31472	35440	
292	30768	25348	31580	35448	
293	30784	25376	31652	35492	
294	30768	25364	31668	35604	
295	30688	25420	31656	35696	
296	30800	25464	31604	35788	
297	30784	25456	31584	35796	
298	30800	25424	31580	35724	
299	30816	25420	31604	35592	
300	30816	25340	31592	35544	
301	30864	25288	31560	35460	
302	30928	25240	31516	35428	
303	30960	25200	31496	35412	
304	30960	25140	31444	35436	
305	31008	25152	31420	35460	
306	30992	25116	31424	35408	
307	31056	25108	31452	35376	
308	31120	25104	31440	35376	
309	31152	25112	31472	35364	
310	31200	25132	31472	35420	
311	31200	25144	31488	35416	
312	31136	25192	31508	35452	
313	31136	25272	31552	35492	
314	31168	25340	31568	35484	
315	31184	25356	31560	35520	
316	31232	25372	31556	35500	
317	31248	25376	31556	35496	
318	31232	25380	31524	35544	
319	31280	25392	31500	35548	
320	31328	25392	31464	35532	
321	31312	25328	31468	35556	
322	31328	25336	31468	35548	
323	31280	25356	31480	35532	
324	31296	25292	31484	35528	
325	31312	25288	31524	35548	
326	31264	25276	31504	35560	
327	31280	25248	31516	35528	
328	31344	25232	31548	35536	
329	31360	25236	31544	35560	
330	31312	25236	31524	35548	
331	31248	25224	31556	35576	
332	31248	25216	31536	35548	
333	31248	25212	31552	35572	
334	31248	25220	31544	35620	
335	31248	25200	31524	35544	
336	31232	25212	31524	35548	
337	31168	25228	31524	35544	
338	31168	25216	31532	35536	
339	31040	25240	31508	35516	
340	31008	25220	31516	35500	
341	31056	25272	31492	35508	
342	31008	25264	31516	35488	
343	31088	25296	31544	35484	
344	31184	25328	31512	35472	
345	31264	25324	31532	35508	
346	31344	25344	31500	35496	
347	31328	25276	31464	35512	
348	31408	25316	31496	35524	
349	31440	25260	31508	35508	
350	31472	25288	31508	35512	
351	31520	25332	31556	35524	
352	31472	25264	31544	35548	
353	31504	25248	31536	35540	
354	31504	25236	31564	35580	
355	31520	25224	31560	35580	
356	31552	25272	31564	35600	
357	31552	25256	31568	35596	
358	31584	25288	31564	35616	
359	31600	25216	31536	35564	
360	31536	25212	31544	35584	
361	31520	25204	31536	35588	
362	31472	25200	31564	35564	
363	31440	25196	31532	35576	
364	31360	25196	31544	35532	
365	31280	25236	31524	35516	
366	31312	25216	31532	35504	
367	31376	25180	31536	35484	
368	31440	25208	31544	35468	
369	31440	25216	31564	35488	
370	31504	25240	31504	35520	
371	31584	25232	31528	35508	
372	31520	25220	31564	35560	
373	31600	25248	31528	35548	
374	31600	25228	31536	35532	
375	31744	25244	31504	35576	
376	31808	25220	31508	35576	
377	31872	25228	31520	35556	
378	32016	25224	31536	35536	
379	32080	25208	31536	35484	
380	32240	25220	31532	35484	
381	32272	25212	31536	35432	
382	32304	25236	31548	35464	
383	32368	25236	31536	35516	
384	32384	25208	31540	35496	
385	32432	25220	31548	35520	
386	32496	25272	31536	35488	
387	32624	25264	31532	35492	
388	32624	25272	31528	35504	
389	32720	25300	31540	35536	
390	32688	25340	31552	35512	
391	32688	25356	31528	35520	
392	32768	25340	31512	35512	
393	32800	25312	31524	35524	
394	32848	25288	31536	35532	
395	32880	25292	31568	35552	
396	32880	25260	31540	35536	
397	32832	25284	31556	35560	
398	32880	25264	31564	35584	
399	32960	25280	31560	35568	
400	32976	25308	31572	35592	
401	33056	25272	31560	35600	
402	33088	25284	31588	35576	
403	33088	25256	31564	35604	
404	33104	25260	31548	35604	
405	33120	25264	31564	35592	
406	33040	25248	31552	35604	
407	33056	25268	31524	35564	
408	33040	25216	31552	35528	
409	33088	25232	31556	35572	
410	33056	25248	31520	35564	
411	33152	25268	31544	35556	
412	33152	25228	31536	35560	
413	33072	25268	31524	35536	
414	33104	25256	31520	35536	
415	33136	25244	31524	35572	
416	33120	25212	31504	35580	
417	33104	25260	31528	35556	
418	33024	25288	31524	35540	
419	33072	25244	31520	35576	
420	33008	25260	31536	35596	
421	33056	25252	31528	35556	
422	33088	25252	31520	35532	
423	33136	25256	31524	35536	
424	33168	25248	31524	35556	
425	33136	25224	31532	35540	
426	33024	25224	31512	35556	
427	32912	25248	31512	35548	
428	32736	25296	31536	35528	
429	32480	25236	31512	35528	
430	32272	25264	31528	35516	
431	32160	25244	31556	35524	
432	32096	25216	31536	35536	
433	32032	25232	31540	35516	
434	32032	25248	31536	35520	
435	32000	25224	31516	35532	
436	31888	25208	31528	35520	
437	31840	25224	31520	35496	
438	31664	25212	31536	35516	
439	31488	25212	31556	35524	
440	31408	25228	31520	35496	
441	31408	25216	31552	35484	
442	31600	25184	31572	35532	
443	31840	25184	31540	35520	
444	31936	25188	31544	35508	
445	32144	25180	31536	35496	
446	32256	25204	31520	35552	
447	32352	25196	31544	35528	
448	32512	25208	31536	35528	
449	32592	25200	31556	35524	
450	32672	25216	31556	35512	
451	32848	25216	31548	35460	
452	32992	25208	31540	35556	
453	33120	25212	31548	35520	
454	33184	25204	31552	35500	
455	33200	25236	31564	35516	
456	33248	25212	31544	35476	
457	33264	25224	31560	35512	
458	33232	25240	31536	35496	
459	33232	25268	31564	35508	
460	33136	25204	31524	35512	
461	33056	25244	31552	35540	
462	33088	25208	31548	35520	
463	33072	25256	31540	35500	
464	32992	25276	31548	35504	
465	32864	25268	31540	35508	
466	32816	25224	31532	35504	
467	32976	25212	31508	35500	
468	33264	25252	31516	35512	
469	33616	25248	31492	35552	
470	33696	25228	31520	35524	
471	33264	25220	31528	35488	
472	32560	25260	31496	35504	
473	32672	25292	31516	35496	
474	33200	25236	31528	35480	
475	33520	25240	31504	35460	
476	33360	25236	31512	35456	
477	32544	25228	31512	35492	
478	31744	25224	31496	35484	
479	32144	25256	31516	35524	
480	32560	25284	31500	35556	
481	32496	25252	31520	35540	
482	32320	25252	31524	35540	
483	32272	25212	31548	35640	
484	33152	25260	31532	35640	
485	34400	25288	31576	35648	
486	36016	25224	31620	35740	
487	38608	25252	31660	35748	
488	40544	25112	31724	35872	
489	41040	25156	31784	35880	
490	40432	25236	31696	35652	
491	39456	25352	31556	35504	
492	38048	25364	31448	35336	
493	36768	25320	31324	35244	
494	35616	25196	31228	35188	
495	34672	25096	31184	35236	
496	33792	25096	31248	35304	
497	32944	25092	31324	35232	
498	32160	25160	31384	35232	
499	31616	25232	31428	35240	
500	31152	25288	31436	35312	
501	30864	25332	31392	35440	
502	30720	25364	31492	35484	
503	30720	25400	31636	35484	
504	30656	25408	31696	35504	
505	30624	25452	31708	35604	
506	30608	25504	31696	35760	
507	30576	25516	31648	35820	
508	30576	25484	31624	35784	
509	30544	25424	31640	35764	
510	30576	25372	31660	35640	
511	30608	25288	31656	35552	
512	30624	25240	31616	35520	
513	30656	25168	31576	35392	
514	30672	25136	31504	35424	
515	30704	25124	31436	35392	
516	30720	25068	31432	35384	
517	30784	25056	31428	35368	
518	30800	25028	31460	35340	
519	30896	25036	31464	35324	
520	30928	25044	31476	35328	
521	30896	25048	31472	35336	
522	30832	25124	31504	35372	
523	30912	25136	31516	35368	
524	30976	25192	31524	35396	
525	30976	25336	31568	35396	
526	30992	25324	31572	35416	
527	31024	25344	31544	35440	
528	31040	25384	31568	35464	
529	31024	25364	31532	35512	
530	30928	25352	31528	35492	
531	30992	25372	31532	35480	
532	31072	25364	31508	35532	
533	31040	25280	31492	35564	
534	31088	25276	31500	35560	
535	31104	25236	31508	35540	
536	31184	25276	31520	35504	
537	31136	25228	31532	35524	
538	31136	25196	31548	35532	
539	31104	25176	31560	35528	
540	31136	25148	31560	35516	
541	31168	25172	31560	35560	
542	31200	25176	31568	35524	
543	31232	25152	31576	35584	
544	31136	25160	31560	35520	
545	31152	25172	31552	35492	
546	31168	25164	31516	35548	
547	31120	25152	31548	35528	
548	31184	25160	31528	35500	
549	31168	25184	31528	35488	
550	31152	25224	31480	35448	
551	31136	25196	31508	35448	
552	31216	25216	31484	35444	
553	31280	25248	31472	35452	
554	31296	25244	31484	35456	
555	31408	25328	31476	35428	
556	31520	25256	31476	35448	
557	31472	25288	31500	35444	
558	31536	25336	31500	35436	
559	31536	25276	31500	35460	
560	31664	25332	31508	35496	
561	31808	25248	31520	35496	
562	31680	25264	31512	35476	
563	31696	25264	31488	35492	
564	31712	25280	31496	35500	
565	31728	25312	31508	35492	
566	31792	25208	31544	35540	
567	31696	25236	31520	35516	
568	31600	25224	31540	35540	
569	31568	25228	31556	35556	
570	31568	25200	31536	35556	
571	31456	25196	31552	35564	
572	31424	25208	31536	35568	
573	31360	25188	31552	35592	
574	31360	25192	31544	35568	
575	31408	25176	31540	35520	
576	31456	25184	31520	35492	
577	31472	25180	31508	35440	
578	31488	25180	31508	35432	
579	31456	25176	31544	35376	
580	31504	25168	31544	35416	
581	31488	25212	31544	35444	
582	31536	25200	31528	35436	
583	31648	25168	31536	35488	
584	31728	25212	31528	35488	
585	31856	25180	31548	35472	
586	31984	25188	31516	35496	
587	31984	25184	31536	35512	
588	32048	25216	31520	35484	
589	32160	25160	31504	35492	
590	32320	25192	31496	35484	
591	32368	25172	31536	35448	
592	32448	25172	31548	35456	
593	32432	25180	31536	35420	
594	32512	25164	31556	35480	
595	32544	25168	31540	35480	
596	32592	25200	31532	35480	
597	32592	25204	31528	35472	
598	32688	25196	31520	35472	
599	32752	25228	31524	35480	
600	32832	25252	31528	35496	
601	32848	25268	31536	35488	
602	32896	25264	31500	35548	
603	32928	25260	31500	35536	
604	32896	25268	31532	35496	
605	32864	25272	31540	35488	
606	32960	25244	31532	35492	
607	32928	25272	31540	35496	
608	32992	25216	31536	35504	
609	32976	25220	31564	35516	
610	33024	25236	31544	35516	
611	33024	25204	31572	35564	
612	33104	25220	31572	35560	
613	33072	25248	31548	35564	
614	33024	25256	31564	35540	
615	33008	25260	31568	35556	
616	33024	25264	31556	35556	
617	33024	25216	31564	35552	
618	32992	25244	31564	35584	
619	33024	25236	31568	35512	
620	33056	25248	31560	35488	
621	33040	25196	31552	35536	
622	33136	25224	31552	35492	
623	33120	25264	31556	35492	
624	33040	25252	31568	35552	
625	32976	25276	31572	35540	
626	32976	25252	31576	35556	
627	32832	25216	31540	35488	
628	32880	25224	31564	35492	
629	32928	25204	31548	35516	
630	33008	25208	31556	35520	
631	33040	25224	31548	35504	
632	33072	25228	31524	35484	
633	33024	25216	31548	35500	
634	32976	25184	31544	35504	
635	32832	25196	31520	35472	
636	32560	25204	31540	35508	
637	32416	25232	31532	35448	
638	32352	25220	31560	35468	
639	32256	25244	31512	35472	
640	32128	25184	31556	35516	
641	32112	25224	31536	35488	
642	32080	25208	31524	35476	
643	32048	25236	31532	35448	
644	31936	25212	31524	35472	
645	31728	25228	31540	35464	
646	31648	25208	31504	35472	
647	31584	25204	31544	35456	
648	31552	25216	31536	35516	
649	31744	25200	31524	35468	
650	31904	25184	31548	35492	
651	31984	25180	31532	35496	
652	32064	25172	31492	35508	
653	32176	25196	31536	35496	
654	32320	25176	31532	35476	
655	32416	25192	31532	35480	
656	32528	25204	31508	35488	
657	32608	25172	31540	35496	
658	32752	25180	31524	35472	
659	32896	25164	31536	35492	
660	33008	25192	31536	35476	
661	33136	25232	31552	35496	
662	33232	25220	31556	35476	
663	33264	25204	31540	35492	
664	33264	25216	31560	35460	
665	33312	25228	31536	35472	
666	33296	25232	31548	35500	
667	33200	25252	31552	35464	
668	33184	25212	31512	35464	
669	33152	25208	31552	35432	
670	33200	25216	31548	35484	
671	33200	25224	31544	35440	
672	33120	25224	31540	35432	
673	32992	25208	31552	35444	
674	33072	25224	31540	35464	
675	33216	25240	31536	35448	
676	33520	25252	31544	35456	
677	33872	25292	31548	35444	
678	33744	25252	31520	35416	
679	33152	25260	31520	35456	
680	32816	25232	31516	35460	
681	33392	25236	31524	35408	
682	33856	25300	31528	35448	
683	33808	25280	31540	35464	
684	33104	25232	31516	35472	
685	32096	25244	31540	35496	
686	31728	25284	31516	35476	
687	32144	25248	31548	35520	
688	32272	25272	31536	35544	
689	32000	25268	31560	35496	
690	31824	25260	31564	35572	
691	32160	25284	31584	35596	
692	33200	25284	31596	35588	
693	34448	25256	31608	35604	
694	36352	25276	31648	35644	
695	39104	25300	31720	35644	
696	40592	25232	31740	35656	
697	40544	25272	31752	35608	
698	39648	25180	31680	35532	
699	38480	25172	31556	35492	
700	37280	25104	31404	35440	
701	36048	25132	31268	35412	
702	34928	25100	31208	35380	
703	34032	25136	31204	35292	
704	33200	25104	31264	35208	
705	32384	25128	31316	35160	
706	31680	25120	31380	35164	
707	31152	25148	31368	35268	
708	30800	25208	31364	35400	
709	30592	25264	31420	35472	
710	30528	25344	31544	35472	
711	30480	25408	31664	35504	
712	30480	25412	31768	35608	
713	30480	25428	31732	35720	
714	30448	25468	31704	35900	
715	30416	25480	31688	35908	
716	30448	25448	31660	35840	
717	30432	25388	31680	35704	
718	30480	25312	31716	35600	
719	30576	25244	31684	35524	
720	30688	25232	31600	35440	
721	30688	25148	31508	35400	
722	30768	25088	31476	35400	
723	30768	25060	31432	35364	
724	30848	25016	31448	35336	
725	30880	25012	31424	35304	
726	30880	24984	31464	35296	
727	30848	24972	31484	35292	
728	30864	25012	31480	35304	
729	30848	25084	31520	35328	
730	30832	25112	31524	35368	
731	30928	25184	31556	35372	
732	30928	25248	31536	35408	
733	31024	25340	31564	35408	
734	31136	25368	31544	35392	
735	31200	25372	31548	35428	
736	31200	25372	31540	35488	
737	31232	25388	31540	35496	
738	31184	25364	31512	35500	
739	31152	25364	31520	35520	
740	31184	25380	31516	35524	
741	31136	25340	31520	35548	
742	31136	25316	31480	35540	
743	31120	25300	31500	35540	
744	31120	25240	31532	35536	
745	31136	25228	31544	35536	
746	31072	25212	31560	35556	
747	31088	25200	31572	35520	
748	31152	25180	31576	35516	
749	31216	25180	31580	35532	
750	31264	25164	31564	35540	
751	31312	25152	31556	35496	
752	31296	25176	31560	35520	
753	31200	25160	31548	35520	
754	31152	25172	31560	35508	
755	31120	25204	31508	35488	
756	31168	25160	31472	35508	
757	31200	25176	31504	35468	
758	31200	25184	31484	35468	
759	31312	25200	31492	35444	
760	31280	25204	31480	35460	
761	31328	25212	31484	35424	
762	31360	25252	31472	35444	
763	31472	25284	31496	35436	
764	31456	25328	31504	35428	
765	31504	25288	31468	35472	
766	31616	25276	31492	35472	
767	31712	25328	31524	35444	
768	31744	25340	31508	35448	
769	31760	25308	31508	35488	
770	31744	25268	31512	35496	
771	31792	25252	31528	35476	
772	31760	25316	31516	35528	
773	31744	25268	31516	35520	
774	31728	25268	31540	35520	
775	31696	25252	31544	35556	
776	31760	25240	31540	35536	
777	31680	25200	31564	35500	
778	31504	25196	31552	35540	
779	31408	25196	31552	35536	
780	31360	25184	31544	35524	
781	31264	25188	31548	35520	
782	31264	25160	31528	35508	
783	31296	25176	31520	35480	
784	31360	25156	31560	35464	
785	31472	25164	31512	35444	
786	31472	25160	31528	35416	
787	31584	25160	31524	35460	
788	31632	25136	31532	35428	
789	31696	25164	31552	35496	
790	31808	25168	31540	35480	
791	31856	25196	31568	35504	
792	31936	25220	31528	35536	
793	32048	25212	31520	35516	
794	32176	25196	31540	35528	
795	32256	25192	31512	35528	
796	32288	25184	31540	35536	
797	32336	25184	31512	35524	
798	32384	25184	31516	35476	
799	32464	25156	31548	35480	
800	32512	25164	31524	35472	
801	32576	25160	31556	35476	
802	32640	25152	31560	35444	
803	32576	25176	31552	35464	
804	32640	25176	31552	35488	
805	32656	25204	31528	35460	
806	32736	25196	31524	35492	
807	32816	25224	31560	35448	
808	32832	25264	31548	35460	
809	32832	25260	31520	35492	
810	32816	25284	31528	35476	
811	32784	25316	31512	35524	
812	32752	25260	31540	35512	
813	32816	25236	31544	35520	
814	32864	25272	31544	35556	
815	32960	25264	31536	35516	
816	33008	25240	31524	35484	
817	32992	25260	31560	35512	
818	32992	25256	31540	35528	
819	33008	25236	31548	35532	
820	32992	25268	31576	35532	
821	33040	25256	31568	35540	
822	33072	25212	31516	35532	
823	33168	25220	31516	35552	
824	33152	25260	31560	35500	
825	33152	25236	31536	35496	
826	33152	25232	31548	35516	
827	33040	25240	31532	35540	
828	33104	25232	31524	35504	
829	33104	25288	31556	35520	
830	33120	25244	31532	35512	
831	33104	25248	31540	35520	
832	33168	25252	31552	35504	
833	33120	25256	31528	35520	
834	33152	25212	31552	35508	
835	33216	25204	31524	35528	
836	33152	25220	31552	35504	
837	33024	25244	31520	35492	
838	32928	25216	31520	35492	
839	32800	25256	31512	35464	
840	32592	25244	31532	35492	
841	32368	25248	31548	35456	
842	32304	25220	31540	35492	
843	32240	25228	31532	35492	
844	32128	25212	31504	35532	
845	32112	25224	31532	35492	
846	32048	25212	31524	35488	
847	31968	25232	31520	35492	
848	31824	25232	31528	35508	
849	31664	25208	31536	35488	
850	31616	25228	31532	35484	
851	31440	25212	31508	35488	
852	31552	25240	31548	35480	
853	31776	25244	31536	35508	
854	32048	25224	31520	35460	
855	32144	25220	31532	35480	
856	32320	25244	31536	35476	
857	32384	25244	31544	35456	
858	32528	25240	31536	35432	
859	32608	25244	31536	35480	
860	32688	25200	31536	35476	
861	32736	25232	31528	35456	
862	32928	25232	31532	35496	
863	33040	25204	31528	35516	
864	33184	25212	31544	35500	
865	33296	25244	31536	35496	
866	33344	25192	31528	35496	
867	33408	25200	31512	35476	
868	33344	25184	31544	35476	
869	33376	25176	31528	35504	
870	33360	25224	31532	35496	
871	33328	25212	31536	35520	
872	33248	25200	31516	35500	
873	33184	25216	31504	35512	
874	33184	25224	31508	35564	
875	33136	25212	31532	35512	
876	33104	25196	31520	35492	
877	33104	25212	31508	35516	
878	33248	25196	31516	35484	
879	33472	25228	31520	35508	
880	33952	25260	31524	35488	
881	34208	25220	31512	35492	
882	34000	25240	31520	35480	
883	33504	25232	31516	35488	
884	33440	25220	31528	35484	
885	34016	25264	31528	35472	
886	34320	25260	31516	35472	
887	34032	25256	31508	35520	
888	33264	25252	31516	35532	
889	32000	25276	31508	35484	
890	31792	25260	31524	35516	
891	32144	25280	31504	35568	
892	32192	25288	31528	35580	
893	31872	25256	31544	35552	
894	31648	25244	31572	35600	
895	32080	25296	31568	35592	
896	33184	25284	31580	35628	
897	34464	25312	31608	35624	
898	36800	25304	31680	35640	
899	39376	25304	31700	35624	
900	40656	25300	31736	35616	
901	40464	25236	31712	35564	
902	39440	25188	31660	35524	
903	38352	25156	31528	35484	
904	37152	25112	31400	35460	
905	35936	25112	31300	35408	
906	34848	25156	31224	35368	
907	33904	25152	31256	35288	
908	33040	25156	31292	35188	
909	32256	25172	31368	35132	
910	31552	25192	31360	35144	
911	31136	25232	31368	35288	
912	30848	25244	31376	35440	
913	30704	25352	31444	35480	
914	30608	25380	31576	35488	
915	30528	25404	31728	35580	
916	30528	25440	31772	35632	
917	30416	25496	31768	35792	
918	30400	25508	31716	35932	
919	30448	25516	31692	35928	
920	30496	25460	31704	35920	
921	30528	25408	31736	35760	
922	30608	25316	31732	35640	
923	30560	25216	31688	35572	
924	30592	25180	31572	35508	
925	30672	25124	31508	35480	
926	30736	25096	31436	35412	
927	30800	25056	31388	35360	
928	30864	25044	31416	35328	
929	30928	24988	31424	35304	
930	30976	25004	31460	35256	
931	30976	25028	31464	35284	
932	31024	25040	31472	35304	
933	30960	25080	31460	35332	
934	31072	25156	31484	35312	
935	31072	25208	31508	35372	
936	31152	25232	31528	35396	
937	31168	25328	31528	35364	
938	31104	25384	31560	35432	
939	31088	25372	31572	35464	
940	31072	25372	31532	35444	
941	31168	25384	31516	35488	
942	31184	25376	31532	35556	
943	31264	25356	31512	35544	
944	31200	25360	31520	35560	
945	31264	25344	31520	35572	
946	31232	25312	31556	35576	
947	31216	25312	31524	35612	
948	31200	25240	31544	35596	
949	31152	25240	31544	35584	
950	31200	25176	31532	35592	
951	31168	25196	31560	35592	
952	31168	25188	31552	35584	
953	31184	25184	31556	35580	
954	31216	25176	31552	35564	
955	31216	25164	31568	35516	
956	31232	25184	31544	35516	
957	31200	25156	31536	35508	
958	31280	25180	31488	35508	
959	31328	25152	31480	35448	
960	31328	25192	31496	35456	
961	31328	25200	31468	35420	
962	31376	25184	31456	35416	
963	31424	25196	31472	35436	
964	31568	25220	31492	35396	
965	31696	25256	31460	35388	
966	31776	25288	31464	35408	
967	31776	25312	31496	35420	
968	31824	25288	31468	35428	
969	31856	25304	31476	35412	
970	31824	25284	31472	35420	
971	31840	25312	31500	35456	
972	31792	25260	31484	35424	
973	31824	25264	31496	35484	
974	31840	25256	31508	35484	
975	31792	25252	31516	35492	
976	31760	25236	31504	35480	
977	31760	25232	31528	35532	
978	31632	25264	31532	35540	
979	31520	25212	31520	35524	
980	31408	25228	31548	35528	
981	31392	25208	31536	35552	
982	31344	25192	31548	35516	
983	31280	25168	31540	35524	
984	31232	25148	31544	35584	
985	31232	25160	31536	35520	
986	31184	25172	31536	35516	
987	31136	25136	31508	35444	
988	31216	25148	31532	35424	
989	31312	25192	31548	35444	
990	31472	25172	31560	35436	
991	31584	25160	31508	35448	
992	31648	25160	31552	35468	
993	31776	25200	31568	35428	
994	31840	25176	31532	35504	
995	31888	25168	31536	35500	
996	31984	25184	31524	35488	
997	31968	25176	31532	35476	
998	32080	25168	31540	35456	
999	32240	25184	31532	35444	
1000	32352	25180	31524	35468	
1001	32432	25148	31512	35476	
1002	32416	25164	31516	35416	
1003	32368	25172	31540	35432	
1004	32416	25204	31552	35456	
1005	32464	25172	31572	35472	
1006	32560	25160	31556	35436	
1007	32576	25164	31560	35452	
1008	32608	25184	31536	35468	
1009	32736	25184	31556	35492	
1010	32752	25180	31528	35476	
1011	32736	25224	31544	35512	
1012	32800	25228	31564	35500	
1013	32896	25240	31548	35508	
1014	32944	25272	31536	35548	
1015	32896	25220	31540	35572	
1016	32896	25240	31568	35576	
1017	32976	25256	31568	35556	
1018	32960	25224	31564	35568	
1019	32928	25252	31536	35560	
1020	32864	25240	31592	35528	
1021	32896	25288	31592	35576	
1022	32880	25244	31560	35532	
1023	33008	25248	31596	35544	
1024	33024	25228	31580	35564	
1025	33040	25244	31568	35556	
1026	33056	25288	31576	35572	
1027	33120	25268	31584	35512	
1028	33120	25292	31560	35528	
1029	33120	25268	31580	35528	
1030	33120	25228	31584	35532	
1031	33088	25276	31568	35524	
1032	33120	25236	31576	35524	
1033	33072	25252	31572	35508	
1034	33024	25312	31568	35500	
1035	32992	25260	31552	35500	
1036	32992	25232	31576	35512	
1037	32976	25248	31560	35480	
1038	33024	25228	31544	35528	
1039	32800	25240	31544	35532	
1040	32688	25240	31556	35552	
1041	32560	25260	31540	35524	
1042	32368	25264	31564	35512	
1043	32224	25216	31552	35528	
1044	32080	25236	31564	35500	
1045	32016	25228	31528	35520	
1046	32064	25272	31544	35536	
1047	32032	25228	31520	35488	
1048	31936	25200	31524	35528	
1049	31776	25212	31540	35536	
1050	31728	25240	31560	35532	
1051	31664	25228	31552	35508	
1052	31488	25212	31552	35516	
1053	31472	25256	31560	35520	
1054	31648	25220	31544	35540	
1055	31888	25236	31552	35500	
1056	32048	25200	31528	35452	
1057	32176	25172	31540	35488	
1058	32336	25192	31568	35508	
1059	32416	25212	31552	35500	
1060	32560	25196	31576	35492	
1061	32704	25236	31556	35504	
1062	32832	25220	31544	35492	
1063	32960	25228	31560	35492	
1064	33088	25188	31524	35484	
1065	33184	25208	31572	35512	
1066	33216	25224	31568	35484	
1067	33216	25184	31536	35492	
1068	33328	25204	31544	35480	
1069	33360	25228	31536	35468	
1070	33408	25204	31556	35516	
1071	33392	25196	31552	35500	
1072	33344	25192	31548	35484	
1073	33312	25200	31556	35488	
1074	33168	25180	31552	35516	
1075	33072	25192	31552	35484	
1076	33024	25212	31556	35496	
1077	32992	25212	31532	35480	
1078	32992	25196	31540	35492	
1079	33088	25200	31520	35484	
1080	33328	25272	31516	35472	
1081	33776	25212	31548	35492	
1082	34192	25232	31532	35452	
1083	34288	25236	31520	35476	
1084	33984	25200	31532	35476	
1085	33600	25252	31516	35456	
1086	34048	25240	31536	35460	
1087	34384	25240	31512	35436	
1088	34288	25200	31528	35468	
1089	33520	25244	31504	35480	
1090	32304	25288	31528	35476	
1091	31488	25236	31540	35468	
1092	31728	25264	31528	35544	
1093	32000	25276	31532	35504	
1094	31728	25240	31520	35556	
1095	31504	25284	31536	35576	
1096	31536	25256	31544	35584	
1097	32304	25280	31536	35588	
1098	33536	25308	31580	35636	
1099	35296	25284	31644	35640	
1100	38176	25320	31704	35672	
1101	40288	25272	31716	35640	
1102	40528	25256	31756	35584	
1103	39920	25208	31740	35516	
1104	38848	25172	31676	35432	
1105	37600	25140	31516	35408	
1106	36384	25108	31372	35352	
1107	35248	25132	31244	35364	
1108	34208	25160	31216	35284	
1109	33472	25172	31264	35200	
1110	32656	25168	31320	35128	
1111	31936	25184	31364	35152	
1112	31424	25180	31380	35228	
1113	31040	25236	31352	35368	
1114	30784	25312	31408	35452	
1115	30624	25344	31484	35504	
1116	30592	25388	31660	35496	
1117	30640	25464	31748	35540	
1118	30624	25476	31740	35688	
1119	30592	25508	31716	35764	
1120	30656	25516	31700	35884	
1121	30640	25428	31696	35828	
1122	30640	25384	31680	35732	
1123	30720	25340	31700	35668	
1124	30656	25300	31676	35544	
1125	30704	25192	31616	35472	
1126	30704	25152	31552	35440	
1127	30768	25104	31476	35404	
1128	30864	25084	31416	35376	
1129	30960	25040	31404	35348	
1130	30976	25020	31416	35308	
1131	31008	24968	31460	35260	
1132	31008	25004	31496	35312	
1133	31040	25000	31512	35292	
1134	31152	25060	31472	35316	
1135	31216	25096	31480	35340	
1136	31280	25212	31504	35368	
1137	31248	25300	31516	35320	
1138	31248	25340	31544	35360	
1139	31216	25344	31576	35360	
1140	31264	25360	31560	35388	
1141	31232	25372	31560	35424	
1142	31248	25360	31552	35448	
1143	31280	25368	31532	35488	
1144	31312	25356	31528	35496	
1145	31248	25368	31548	35524	
1146	31280	25376	31524	35540	
1147	31152	25336	31536	35548	
1148	31184	25288	31536	35540	
1149	31216	25272	31560	35568	
1150	31264	25240	31560	35556	
1151	31312	25236	31576	35520	
1152	31312	25216	31564	35536	
1153	31232	25200	31580	35536	
1154	31360	25176	31576	35520	
1155	31328	25156	31556	35524	
1156	31296	25180	31560	35568	
1157	31328	25168	31552	35520	
1158	31328	25144	31532	35528	
1159	31392	25136	31520	35496	
1160	31408	25180	31516	35448	
1161	31424	25144	31528	35448	
1162	31424	25176	31488	35436	
1163	31456	25164	31452	35436	
1164	31504	25204	31460	35456	
1165	31536	25212	31464	35404	
1166	31536	25212	31468	35420	
1167	31552	25244	31476	35408	
1168	31648	25296	31420	35412	
1169	31744	25280	31436	35440	
1170	31776	25332	31468	35424	
1171	31840	25300	31456	35464	
1172	31840	25288	31488	35472	
1173	31840	25276	31508	35484	
1174	31808	25316	31476	35484	
1175	31760	25304	31488	35492	
1176	31792	25252	31516	35496	
1177	31760	25276	31520	35528	
1178	31712	25236	31524	35508	
1179	31648	25216	31544	35484	
1180	31632	25216	31564	35560	
1181	31552	25228	31560	35556	
1182	31408	25208	31596	35548	
1183	31360	25184	31552	35544	
1184	31360	25172	31560	35552	
1185	31312	25168	31540	35548	
1186	31248	25156	31540	35492	
1187	31184	25172	31536	35496	
1188	31216	25160	31512	35472	
1189	31216	25164	31524	35424	
1190	31232	25188	31560	35444	
1191	31280	25192	31532	35428	
1192	31344	25192	31536	35432	
1193	31456	25184	31560	35436	
1194	31568	25172	31508	35484	
1195	31712	25156	31520	35476	
1196	31792	25172	31528	35472	
1197	31792	25172	31512	35480	
1198	31920	25188	31536	35468	
1199	32000	25180	31520	35504	
1200	32096	25172	31524	35472	
1201	32176	25148	31524	35468	
1202	32240	25160	31544	35484	
1203	32224	25172	31516	35460	
1204	32272	25160	31576	35424	
1205	32320	25168	31556	35416	
1206	32352	25172	31540	35468	
1207	32544	25160	31564	35484	
1208	32528	25160	31556	35496	
1209	32560	25176	31536	35488	
1210	32608	25204	31544	35492	
1211	32656	25212	31524	35476	
1212	32688	25224	31536	35488	
1213	32800	25244	31532	35484	
1214	32848	25260	31504	35520	
1215	32848	25256	31520	35504	
1216	32912	25240	31528	35536	
1217	32912	25272	31552	35536	
1218	32896	25252	31528	35484	
1219	32848	25268	31568	35532	
1220	32896	25232	31548	35536	
1221	32928	25276	31552	35532	
1222	32976	25256	31524	35568	
1223	33056	25272	31564	35556	
1224	33040	25276	31544	35564	
1225	33040	25268	31572	35544	
1226	33088	25260	31568	35564	
1227	33072	25248	31556	35552	
1228	33024	25232	31544	35536	
1229	33040	25288	31548	35544	
1230	33024	25252	31560	35540	
1231	33056	25276	31556	35512	
1232	33072	25268	31600	35528	
1233	33136	25320	31584	35480	
1234	33056	25248	31552	35516	
1235	32976	25244	31544	35524	
1236	32976	25260	31504	35532	
1237	32976	25232	31560	35524	
1238	32944	25272	31528	35504	
1239	32832	25240	31540	35500	
1240	32688	25204	31564	35508	
1241	32496	25264	31544	35480	
1242	32288	25244	31544	35496	
1243	32288	25248	31540	35492	
1244	32160	25260	31560	35500	
1245	32112	25248	31524	35512	
1246	32128	25252	31524	35544	
1247	32048	25216	31532	35516	
1248	31872	25220	31552	35484	
1249	31712	25272	31536	35492	
1250	31600	25248	31520	35476	
1251	31552	25212	31492	35476	
1252	31472	25252	31524	35512	
1253	31424	25208	31540	35500	
1254	31552	25200	31516	35488	
1255	31792	25220	31520	35480	
1256	31920	25208	31560	35504	
1257	32016	25232	31544	35496	
1258	32128	25220	31528	35516	
1259	32256	25252	31544	35524	
1260	32448	25216	31540	35516	
1261	32544	25248	31528	35496	
1262	32656	25228	31548	35488	
1263	32816	25200	31552	35512	
1264	32960	25224	31576	35504	
1265	33024	25200	31548	35508	
1266	33120	25216	31548	35496	
1267	33248	25180	31552	35500	
1268	33216	25224	31532	35468	
1269	33264	25200	31560	35472	
1270	33216	25204	31564	35444	
1271	33280	25204	31548	35480	
1272	33344	25188	31548	35440	
1273	33248	25192	31540	35468	
1274	33200	25180	31576	35472	
1275	33120	25172	31540	35452	
1276	33152	25232	31536	35476	
1277	33104	25200	31548	35436	
1278	33088	25204	31552	35436	
1279	33152	25188	31548	35444	
1280	33328	25196	31540	35472	
1281	33712	25192	31544	35420	
1282	34272	25220	31556	35452	
1283	34464	25228	31544	35464	
1284	34144	25204	31528	35440	
1285	33728	25224	31540	35468	
1286	34112	25188	31532	35444	
1287	34352	25232	31536	35456	
1288	34224	25236	31516	35420	
1289	33536	25216	31528	35460	
1290	32288	25220	31540	35500	
1291	31360	25232	31528	35476	
1292	31552	25240	31516	35484	
1293	31728	25260	31528	35512	
1294	31552	25280	31536	35532	
1295	31168	25300	31552	35524	
1296	31136	25284	31524	35536	
1297	31888	25216	31540	35524	
1298	33184	25260	31568	35608	
1299	34912	25276	31572	35596	
1300	37952	25228	31604	35640	
1301	40192	25240	31644	35616	
1302	40688	25232	31708	35632	
1303	40272	25224	31720	35572	
1304	39232	25152	31708	35488	
1305	37920	25124	31572	35420	
1306	36576	25116	31404	35352	
1307	35392	25064	31276	35384	
1308	34480	25120	31200	35360	
1309	33632	25096	31260	35304	
1310	32800	25172	31324	35156	
1311	32112	25164	31384	35108	
1312	31584	25232	31388	35192	
1313	31120	25204	31376	35328	
1314	30960	25276	31396	35524	
1315	30928	25304	31504	35572	
1316	30928	25360	31620	35532	
1317	30752	25348	31740	35548	
1318	30752	25392	31788	35616	
1319	30800	25408	31764	35748	
1320	30784	25392	31692	35796	
1321	30736	25396	31680	35824	
1322	30720	25372	31700	35780	
1323	30816	25312	31672	35720	
1324	30880	25220	31704	35624	
1325	30960	25180	31656	35548	
1326	31072	25180	31656	35448	
1327	31104	25108	31572	35380	
1328	31152	25100	31540	35376	
1329	31168	25092	31480	35380	
1330	31120	25040	31448	35352	
1331	31120	25056	31448	35320	
1332	31216	25024	31480	35280	
1333	31200	25048	31472	35308	
1334	31232	25096	31480	35260	
1335	31296	25128	31492	35292	
1336	31328	25172	31520	35284	
1337	31296	25228	31492	35288	
1338	31280	25308	31520	35300	
1339	31280	25324	31544	35316	
1340	31264	25324	31540	35312	
1341	31264	25340	31548	35388	
1342	31184	25384	31564	35408	
1343	31232	25376	31536	35464	
1344	31232	25384	31572	35532	
1345	31216	25356	31568	35524	
1346	31168	25288	31544	35568	
1347	31136	25304	31564	35536	
1348	31168	25304	31576	35536	
1349	31200	25288	31560	35516	
1350	31216	25264	31592	35588	
1351	31232	25220	31592	35564	
1352	31232	25204	31640	35596	
1353	31248	25216	31608	35612	
1354	31280	25168	31612	35612	
1355	31200	25216	31628	35588	
1356	31296	25180	31604	35592	
1357	31392	25208	31584	35608	
1358	31392	25200	31576	35580	
1359	31456	25228	31548	35572	
1360	31536	25200	31520	35524	
1361	31648	25184	31492	35528	
1362	31648	25156	31528	35504	
1363	31584	25144	31516	35480	
1364	31680	25180	31512	35484	
1365	31712	25200	31500	35456	
1366	31776	25192	31508	35444	
1367	31888	25196	31484	35400	
1368	31904	25180	31472	35420	
1369	31904	25208	31452	35440	
1370	31936	25224	31480	35428	
1371	32032	25208	31460	35444	
1372	32096	25196	31468	35436	
1373	32064	25216	31476	35464	
1374	32048	25232	31500	35428	
1375	32016	25256	31516	35488	
1376	32000	25308	31520	35472	
1377	32000	25304	31564	35488	
1378	31872	25276	31536	35508	
1379	31744	25308	31564	35536	
1380	31648	25288	31536	35532	
1381	31584	25276	31560	35532	
1382	31344	25224	31544	35544	
1383	31360	25244	31548	35512	
1384	31328	25168	31580	35524	
1385	31264	25192	31556	35524	
1386	31248	25168	31564	35500	
1387	31184	25192	31552	35468	
1388	31232	25172	31544	35420	
1389	31232	25192	31544	35392	
1390	31296	25164	31552	35392	
1391	31280	25212	31532	35416	
1392	31328	25172	31564	35408	
1393	31408	25192	31528	35428	
1394	31568	25228	31512	35432	
1395	31584	25232	31520	35480	
1396	31744	25228	31536	35460	
1397	31760	25220	31512	35488	
1398	31872	25168	31520	35456	
1399	31920	25184	31508	35464	
1400	32000	25232	31512	35424	
1401	32112	25188	31508	35388	
1402	32160	25184	31544	35428	
1403	32288	25220	31524	35400	
1404	32352	25224	31572	35424	
1405	32432	25196	31576	35392	
1406	32448	25196	31540	35472	
1407	32496	25160	31560	35436	
1408	32496	25168	31548	35436	
1409	32640	25172	31564	35444	
1410	32640	25212	31540	35444	
1411	32672	25172	31560	35456	
1412	32656	25200	31556	35460	
1413	32672	25252	31536	35492	
1414	32768	25204	31560	35472	
1415	32816	25252	31532	35504	
1416	32800	25220	31524	35480	
1417	32864	25220	31548	35532	
1418	32800	25248	31560	35544	
1419	32864	25244	31568	35568	
1420	32896	25208	31532	35564	
1421	32912	25200	31568	35588	
1422	32976	25244	31536	35580	
1423	32976	25212	31556	35580	
1424	32992	25248	31556	35560	
1425	33072	25220	31552	35556	
1426	33088	25260	31548	35552	
1427	33072	25232	31552	35568	
1428	33056	25196	31540	35548	
1429	33056	25224	31548	35572	
1430	33104	25232	31528	35556	
1431	33152	25288	31532	35488	
1432	33120	25368	31600	35328	
1433	33120	25252	31608	35244	
1434	32992	25292	31560	35340	
1435	32864	25296	31520	35508	
1436	32736	25180	31500	35536	
1437	32528	25188	31460	35572	
1438	32272	25224	31496	35600	
1439	32208	25192	31512	35612	
1440	32144	25252	31540	35568	
1441	32096	25252	31556	35500	
1442	32048	25252	31552	35508	
1443	31904	25208	31536	35536	
1444	31728	25192	31516	35576	
1445	31600	25216	31532	35512	
1446	31520	25188	31528	35528	
1447	31488	25184	31512	35548	
1448	31376	25208	31516	35520	
1449	31392	25172	31532	35540	
1450	31504	25188	31484	35584	
1451	31536	25204	31484	35524	
1452	31680	25220	31512	35552	
1453	31824	25212	31608	35448	
1454	32000	25176	31624	35384	
1455	32144	25212	31560	35456	
1456	32320	25232	31596	35468	
1457	32368	25240	31552	35504	
1458	32432	25244	31520	35504	
1459	32576	25240	31560	35468	
1460	32832	25240	31572	35508	
1461	33008	25264	31532	35512	
1462	33200	25280	31532	35492	
1463	33296	25224	31600	35504	
1464	33264	25248	31528	35480	
1465	33280	25212	31556	35480	
1466	33360	25188	31572	35488	
1467	33360	25212	31568	35528	
1468	33392	25208	31584	35484	
1469	33328	25172	31580	35452	
1470	33280	25188	31576	35432	
1471	33232	25152	31608	35436	
1472	33184	25160	31592	35444	
1473	33152	25188	31592	35444	
1474	33152	25168	31600	35432	
1475	33168	25172	31604	35452	
1476	33168	25188	31568	35460	
1477	33280	25156	31588	35440	
1478	33792	25156	31556	35468	
1479	34352	25196	31548	35492	
1480	34640	25180	31556	35488	
1481	34448	25200	31572	35464	
1482	34016	25224	31536	35488	
1483	34384	25236	31520	35500	
1484	34576	25216	31536	35476	
1485	34336	25204	31524	35476	
1486	33456	25172	31592	35484	
1487	32080	25188	31552	35480	
1488	30896	25152	31568	35504	
1489	30864	25172	31560	35556	
1490	30928	25148	31536	35544	
1491	30656	25204	31548	35580	
1492	30224	25188	31568	35616	
1493	30048	25160	31564	35628	
1494	30816	25148	31560	35644	
1495	32256	25140	31556	35724	
1496	34128	25128	31548	35724	
1497	37168	25132	31604	35808	
1498	39696	25120	31600	35824	
1499	40384	25116	31648	35812	
1500	40080	25148	31696	35756	
1501	39232	25148	31768	35656	
1502	38016	25208	31800	35536	
1503	36800	25200	31780	35392	
1504	35728	25228	31736	35312	
1505	34848	25180	31648	35240	
1506	33920	25200	31496	35248	
1507	33024	25164	31400	35216	
1508	32384	25224	31356	35212	
1509	31792	25296	31272	35180	
1510	31312	25320	31236	35292	
1511	31168	25392	31180	35592	
1512	31056	25428	31264	35692	
1513	31072	25396	31392	35640	
1514	31088	25436	31536	35612	
1515	30992	25492	31600	35540	
1516	30976	25436	31672	35504	
1517	30960	25368	31688	35636	
1518	30960	25344	31728	35708	
1519	31056	25232	31760	35764	
1520	31104	25212	31756	35748	
1521	31040	25200	31744	35740	
1522	31072	25168	31760	35704	
1523	31072	25136	31756	35656	
1524	31104	25124	31744	35584	
1525	31168	25120	31720	35524	
1526	31248	25136	31684	35476	
1527	31184	25128	31680	35424	
1528	31152	25176	31608	35332	
1529	31184	25184	31576	35312	
1530	31264	25196	31528	35280	
1531	31312	25216	31484	35248	
1532	31312	25236	31440	35256	
1533	31280	25264	31356	35276	
1534	31344	25252	31320	35380	
1535	31392	25232	31284	35400	
1536	31376	25296	31356	35424	
1537	31360	25296	31432	35428	
1538	31392	25332	31492	35404	
1539	31344	25392	31564	35380	
1540	31376	25396	31580	35396	
1541	31376	25364	31644	35424	
1542	31408	25372	31660	35448	
1543	31408	25376	31648	35436	
1544	31392	25356	31660	35484	
1545	31376	25308	31636	35548	
1546	31376	25260	31636	35604	
1547	31360	25212	31656	35624	
1548	31424	25184	31644	35652	
1549	31376	25172	31640	35684	
1550	31344	25156	31640	35728	
1551	31344	25180	31616	35696	
1552	31376	25136	31632	35720	
1553	31408	25164	31612	35676	
1554	31488	25164	31584	35728	
1555	31552	25180	31572	35684	
1556	31600	25192	31576	35632	
1557	31664	25152	31536	35632	
1558	31696	25160	31544	35600	
1559	31792	25140	31508	35612	
1560	31920	25160	31484	35608	
1561	32032	25132	31476	35604	
1562	32096	25144	31484	35552	
1563	32176	25156	31484	35572	
1564	32240	25160	31496	35560	
1565	32336	25220	31504	35588	
1566	32368	25204	31480	35544	
1567	32448	25232	31484	35536	
1568	32432	25236	31488	35528	
1569	32416	25316	31484	35524	
1570	32304	25268	31484	35528	
1571	32304	25308	31508	35548	
1572	32320	25308	31508	35540	
1573	32240	25332	31500	35564	
1574	32192	25316	31540	35524	
1575	32096	25344	31520	35576	
1576	31984	25332	31516	35588	
1577	31872	25312	31520	35520	
1578	31712	25324	31520	35504	
1579	31584	25328	31532	35548	
1580	31440	25304	31564	35556	
1581	31296	25256	31592	35508	
1582	31232	25288	31544	35464	
1583	31264	25256	31536	35464	
1584	31264	25248	31536	35432	
1585	31216	25224	31524	35452	
1586	31216	25304	31500	35476	
1587	31280	25208	31536	35460	
1588	31232	25260	31544	35468	
1589	31312	25272	31556	35524	
1590	31312	25260	31572	35516	
1591	31392	25284	31580	35564	
1592	31488	25276	31556	35524	
1593	31536	25336	31580	35596	
1594	31552	25288	31540	35572	
1595	31648	25296	31548	35532	
1596	31696	25224	31536	35548	
1597	31808	25256	31528	35508	
1598	31904	25248	31556	35520	
1599	31968	25260	31532	35504	
1600	32112	25268	31564	35484	
1601	32112	25284	31560	35468	
1602	32288	25208	31588	35476	
1603	32320	25228	31576	35452	
1604	32320	25220	31588	35456	
1605	32384	25216	31592	35428	
1606	32416	25188	31616	35464	
1607	32512	25220	31624	35428	
1608	32592	25236	31628	35452	
1609	32672	25244	31612	35448	
1610	32640	25244	31636	35492	
1611	32608	25240	31612	35496	
1612	32592	25252	31620	35480	
1613	32608	25244	31588	35520	
1614	32624	25276	31572	35556	
1615	32672	25264	31576	35556	
1616	32672	25228	31536	35540	
1617	32688	25216	31556	35564	
1618	32736	25304	31540	35572	
1619	32704	25208	31524	35556	
1620	32704	25256	31536	35580	
1621	32800	25280	31516	35552	
1622	32912	25256	31532	35580	
1623	32944	25248	31544	35596	
1624	32912	25280	31508	35540	
1625	32944	25244	31504	35540	
1626	32928	25304	31536	35540	
1627	32944	25212	31524	35544	
1628	32944	25280	31548	35524	
1629	32896	25256	31500	35500	
1630	32864	25284	31520	35520	
1631	32832	25244	31516	35556	
1632	32704	25304	31488	35544	
1633	32528	25252	31524	35572	
1634	32272	25252	31520	35560	
1635	32224	25232	31512	35560	
1636	32192	25244	31524	35540	
1637	32080	25252	31520	35600	
1638	31952	25232	31520	35592	
1639	31792	25240	31524	35576	
1640	31616	25212	31504	35564	
1641	31472	25216	31568	35564	
1642	31472	25224	31556	35548	
1643	31440	25216	31548	35532	
1644	31440	25204	31560	35564	
1645	31520	25212	31560	35536	
1646	31616	25208	31568	35512	
1647	31744	25224	31560	35516	
1648	31968	25244	31544	35488	
1649	32112	25224	31564	35476	
1650	32144	25268	31576	35492	
1651	32304	25276	31600	35496	
1652	32448	25224	31552	35548	
1653	32576	25216	31560	35560	
1654	32800	25228	31552	35548	
1655	32976	25232	31544	35488	
1656	33088	25228	31540	35520	
1657	33264	25244	31512	35580	
1658	33360	25196	31552	35584	
1659	33392	25204	31556	35580	
1660	33440	25216	31560	35576	
1661	33472	25208	31556	35572	
1662	33520	25188	31552	35580	
1663	33504	25228	31556	35608	
1664	33504	25176	31548	35592	
1665	33520	25180	31576	35612	
1666	33504	25220	31584	35604	
1667	33392	25216	31568	35572	
1668	33360	25200	31560	35592	
1669	33312	25208	31572	35548	
1670	33344	25216	31560	35552	
1671	33312	25236	31568	35580	
1672	33360	25244	31560	35520	
1673	33744	25228	31568	35532	
1674	34368	25200	31528	35512	
1675	34816	25256	31552	35504	
1676	34736	25284	31532	35488	
1677	34336	25280	31520	35496	
1678	34432	25208	31540	35476	
1679	34816	25236	31532	35472	
1680	34560	25252	31516	35504	
1681	33824	25252	31544	35488	
1682	32400	25228	31524	35536	
1683	30896	25272	31548	35532	
1684	30608	25276	31548	35552	
1685	30640	25240	31512	35600	
1686	30608	25228	31540	35616	
1687	30176	25284	31536	35644	
1688	29792	25268	31520	35660	
1689	30192	25280	31520	35688	
1690	31712	25300	31536	35756	
1691	33456	25268	31520	35772	
1692	36576	25272	31508	35772	
1693	39488	25296	31540	35804	
1694	40784	25324	31556	35820	
1695	40816	25304	31604	35724	
1696	40080	25288	31664	35588	
1697	38912	25284	31704	35512	
1698	37616	25228	31716	35372	
1699	36288	25180	31724	35288	
1700	35264	25164	31664	35240	
1701	34288	25156	31568	35220	
1702	33536	25160	31508	35232	
1703	32768	25152	31492	35232	
1704	32240	25200	31468	35200	
1705	31744	25296	31368	35212	
1706	31504	25352	31312	35268	
1707	31344	25368	31220	35436	
1708	31264	25348	31204	35560	
1709	31216	25316	31272	35612	
1710	31280	25372	31396	35656	
1711	31280	25384	31500	35740	
1712	31200	25416	31596	35796	
1713	31296	25428	31644	35848	
1714	31216	25444	31684	35952	
1715	31216	25404	31728	35968	
1716	31168	25372	31752	35944	
1717	31184	25280	31808	35744	
1718	31280	25216	31828	35680	
1719	31264	25212	31820	35620	
1720	31328	25132	31804	35504	
1721	31408	25124	31792	35492	
1722	31440	25072	31788	35468	
1723	31408	25052	31760	35448	
1724	31408	25068	31732	35424	
1725	31392	25092	31660	35404	
1726	31424	25088	31548	35336	
1727	31456	25112	31436	35372	
1728	31488	25172	31396	35436	
1729	31472	25228	31376	35456	
1730	31472	25232	31332	35496	
1731	31424	25336	31384	35484	
1732	31456	25356	31432	35472	
1733	31504	25392	31504	35460	
1734	31568	25376	31560	35460	
1735	31600	25368	31612	35444	
1736	31536	25368	31648	35476	
1737	31520	25324	31660	35532	
1738	31520	25348	31628	35576	
1739	31552	25344	31652	35600	
1740	31600	25376	31620	35672	
1741	31600	25348	31600	35756	
1742	31584	25340	31632	35808	
1743	31584	25356	31572	35800	
1744	31552	25316	31588	35788	
1745	31584	25264	31600	35796	
1746	31584	25236	31596	35792	
1747	31568	25224	31644	35772	
1748	31552	25252	31604	35744	
1749	31664	25208	31644	35684	
1750	31632	25204	31612	35672	
1751	31616	25196	31584	35664	
1752	31600	25208	31568	35628	
1753	31648	25252	31548	35608	
1754	31712	25304	31512	35584	
1755	31776	25252	31508	35576	
1756	31744	25268	31512	35516	
1757	31856	25308	31524	35484	
1758	31984	25308	31528	35492	
1759	32000	25340	31520	35516	
1760	31952	25368	31508	35500	
1761	31968	25336	31524	35536	
1762	32016	25332	31500	35516	
1763	32032	25352	31516	35592	
1764	32000	25324	31508	35548	
1765	31984	25328	31524	35568	
1766	31952	25284	31540	35588	
1767	31904	25276	31568	35604	
1768	31856	25248	31596	35616	
1769	31712	25300	31644	35624	
1770	31664	25268	31628	35644	
1771	31472	25284	31620	35644	
1772	31408	25264	31636	35660	
1773	31264	25256	31620	35660	
1774	31232	25292	31604	35664	
1775	31184	25204	31596	35664	
1776	31168	25212	31616	35680	
1777	31168	25200	31584	35640	
1778	31136	25184	31596	35672	
1779	31168	25180	31580	35632	
1780	31168	25172	31596	35628	
1781	31280	25160	31572	35604	
1782	31376	25184	31616	35532	
1783	31360	25192	31620	35588	
1784	31376	25180	31636	35564	
1785	31440	25220	31608	35584	
1786	31568	25212	31580	35580	
1787	31616	25260	31580	35544	
1788	31680	25248	31568	35612	
1789	31712	25276	31580	35596	
1790	31824	25264	31584	35564	
1791	31952	25256	31592	35552	
1792	32016	25268	31620	35528	
1793	32096	25196	31576	35580	
1794	32176	25256	31632	35596	
1795	32224	25252	31648	35484	
1796	32288	25216	31656	35508	
1797	32352	25232	31652	35476	
1798	32464	25204	31684	35532	
1799	32592	25212	31668	35496	
1800	32576	25208	31672	35504	
1801	32560	25216	31644	35536	
1802	32576	25208	31616	35572	
1803	32576	25228	31648	35496	
1804	32640	25232	31636	35548	
1805	32672	25248	31596	35604	
1806	32720	25256	31604	35576	
1807	32784	25288	31620	35612	
1808	32912	25312	31580	35572	
1809	32880	25348	31656	35572	
1810	32864	25284	31604	35640	
1811	32880	25300	31640	35652	
1812	32864	25292	31620	35680	
1813	32912	25312	31628	35660	
1814	33008	25332	31632	35668	
1815	33088	25308	31596	35668	
1816	33088	25328	31604	35636	
1817	33072	25292	31600	35684	
1818	33104	25288	31608	35664	
1819	33056	25320	31612	35616	
1820	32992	25244	31608	35616	
1821	32960	25300	31588	35664	
1822	32928	25252	31608	35616	
1823	32960	25260	31588	35628	
1824	32832	25320	31584	35660	
1825	32640	25284	31572	35628	
1826	32512	25324	31588	35624	
1827	32432	25272	31596	35616	
1828	32304	25288	31592	35604	
1829	32240	25340	31640	35636	
1830	32064	25312	31604	35600	
1831	31840	25288	31596	35596	
1832	31760	25268	31596	35580	
1833	31616	25268	31596	35596	
1834	31520	25296	31608	35604	
1835	31488	25284	31584	35600	
1836	31568	25296	31636	35584	
1837	31616	25252	31600	35612	
1838	31632	25292	31612	35604	
1839	31744	25320	31604	35596	
1840	31936	25316	31596	35616	
1841	32016	25244	31632	35596	
1842	32240	25264	31588	35600	
1843	32320	25248	31600	35600	
1844	32368	25228	31624	35644	
1845	32560	25300	31588	35612	
1846	32704	25252	31596	35612	
1847	32944	25252	31608	35612	
1848	33120	25276	31608	35604	
1849	33200	25276	31580	35604	
1850	33392	25288	31636	35628	
1851	33536	25276	31604	35608	
1852	33616	25224	31604	35608	
1853	33632	25224	31632	35588	
1854	33632	25240	31620	35604	
1855	33600	25216	31636	35704	
1856	33568	25220	31568	35748	
1857	33504	25236	31580	35732	
1858	33488	25200	31564	35660	
1859	33408	25260	31600	35644	
1860	33344	25220	31616	35644	
1861	33280	25244	31616	35604	
1862	33328	25220	31632	35536	
1863	33376	25296	31596	35508	
1864	33552	25272	31592	35524	
1865	33888	25220	31572	35500	
1866	34400	25236	31576	35496	
1867	34624	25276	31596	35488	
1868	34256	25232	31604	35472	
1869	33664	25256	31604	35464	
1870	33600	25236	31584	35500	
1871	33840	25212	31604	35532	
1872	33680	25216	31612	35572	
1873	32912	25264	31608	35608	
1874	31744	25240	31576	35596	
1875	30672	25244	31600	35632	
1876	30800	25252	31616	35636	
1877	31008	25304	31596	35624	
1878	30992	25272	31640	35624	
1879	30704	25264	31628	35640	
1880	30656	25292	31644	35656	
1881	31456	25312	31660	35680	
1882	32880	25272	31664	35716	
1883	34928	25216	31692	35816	
1884	38080	25120	31716	36024	
1885	40352	25176	31692	36096	
1886	41200	25244	31716	36024	
1887	40896	25296	31760	35888	
1888	40080	25296	31792	35744	
1889	38912	25344	31740	35508	
1890	37680	25336	31680	35372	
1891	36496	25244	31528	35232	
1892	35440	25228	31444	35180	
1893	34544	25140	31352	35296	
1894	33632	25084	31360	35328	
1895	32864	25108	31400	35332	
1896	32240	25196	31456	35316	
1897	31776	25292	31500	35292	
1898	31488	25368	31508	35356	
1899	31216	25400	31508	35452	
1900	31104	25412	31520	35488	
1901	31056	25412	31548	35504	
1902	31024	25444	31672	35516	
1903	31040	25464	31744	35624	
1904	31056	25460	31776	35712	
1905	31056	25480	31740	35792	
1906	30992	25512	31768	35768	
1907	30976	25484	31752	35776	
1908	30960	25412	31752	35752	
1909	31008	25396	31748	35672	
1910	31072	25344	31728	35612	
1911	31136	25356	31668	35568	
1912	31216	25300	31620	35540	
1913	31168	25252	31568	35548	
1914	31120	25204	31536	35508	
1915	31056	25148	31532	35540	
1916	31136	25140	31524	35488	
1917	31184	25128	31532	35472	
1918	31168	25148	31528	35480	
1919	31232	25104	31536	35420	
1920	31248	25112	31572	35448	
1921	31264	25112	31544	35456	
1922	31232	25160	31624	35452	
1923	31168	25212	31568	35464	
1924	31200	25344	31608	35456	
1925	31136	25356	31596	35484	
1926	31136	25420	31576	35572	
1927	31200	25392	31536	35600	
1928	31232	25380	31540	35636	
1929	31280	25380	31536	35624	
1930	31264	25384	31536	35636	
1931	31232	25360	31544	35620	
1932	31248	25356	31540	35624	
1933	31264	25308	31556	35640	
1934	31280	25236	31604	35600	
1935	31232	25212	31604	35648	
1936	31216	25208	31616	35608	
1937	31184	25192	31652	35624	
1938	31296	25192	31612	35608	
1939	31280	25232	31632	35616	
1940	31248	25208	31588	35600	
1941	31296	25224	31592	35588	
1942	31280	25204	31548	35584	
1943	31312	25224	31580	35528	
1944	31376	25240	31564	35620	
1945	31360	25244	31548	35540	
1946	31296	25240	31556	35548	
1947	31328	25264	31572	35512	
1948	31424	25296	31540	35464	
1949	31552	25288	31532	35492	
1950	31552	25268	31548	35484	
1951	31664	25336	31528	35492	
1952	31648	25328	31516	35484	
1953	31680	25388	31476	35444	
1954	31728	25368	31520	35468	
1955	31808	25368	31528	35488	
1956	31808	25360	31540	35484	
1957	31776	25348	31560	35544	
1958	31776	25356	31588	35560	
1959	31680	25372	31612	35544	
1960	31680	25352	31600	35584	
1961	31488	25308	31652	35600	
1962	31424	25324	31640	35588	
1963	31184	25240	31676	35612	
1964	31104	25252	31668	35612	
1965	31008	25164	31668	35676	
1966	30880	25168	31668	35648	
1967	30768	25180	31628	35660	
1968	30704	25152	31648	35656	
1969	30608	25128	31652	35652	
1970	30560	25140	31672	35688	
1971	30560	25120	31676	35672	
1972	30640	25116	31652	35644	
1973	30784	25096	31656	35632	
1974	30832	25104	31644	35624	
1975	30864	25128	31656	35600	
1976	30960	25096	31672	35624	
1977	31072	25128	31660	35628	
1978	31136	25120	31636	35648	
1979	31200	25116	31604	35620	
1980	31344	25096	31628	35652	
1981	31520	25096	31620	35644	
1982	31648	25120	31584	35664	
1983	31808	25088	31604	35600	
1984	31936	25096	31600	35596	
1985	32048	25120	31596	35564	
1986	32112	25136	31612	35548	
1987	32128	25100	31616	35548	
1988	32256	25136	31616	35540	
1989	32256	25136	31612	35532	
1990	32432	25144	31612	35536	
1991	32480	25196	31596	35572	
1992	32608	25228	31580	35584	
1993	32592	25224	31612	35576	
1994	32608	25260	31628	35568	
1995	32688	25268	31596	35592	
1996	32656	25300	31584	35576	
1997	32672	25308	31568	35588	
1998	32800	25332	31608	35600	
1999	32800	25300	31632	35632	
2000	32816	25328	31648	35596	
2001	32880	25320	31616	35604	
2002	32944	25284	31628	35644	
2003	32832	25308	31660	35656	
2004	32848	25308	31652	35676	
2005	32880	25324	31668	35656	
2006	32944	25352	31656	35632	
2007	32960	25324	31644	35648	
2008	32992	25328	31672	35660	
2009	33056	25372	31636	35644	
2010	32960	25316	31640	35684	
2011	32912	25352	31636	35604	
2012	32848	25328	31600	35620	
2013	32736	25336	31572	35620	
2014	32624	25312	31588	35608	
2015	32528	25348	31616	35628	
2016	32384	25304	31612	35620	
2017	32304	25344	31612	35600	
2018	32128	25332	31612	35612	
2019	31968	25316	31600	35616	
2020	31728	25348	31592	35600	
2021	31552	25276	31580	35608	
2022	31424	25304	31620	35608	
2023	31344	25292	31604	35624	
2024	31328	25268	31604	35620	
2025	31376	25280	31612	35644	
2026	31472	25260	31612	35632	
2027	31536	25316	31616	35656	
2028	31680	25304	31648	35664	
2029	31776	25304	31644	35632	
2030	32000	25236	31648	35624	
2031	32080	25292	31652	35684	
2032	32304	25288	31648	35668	
2033	32336	25260	31652	35644	
2034	32464	25284	31624	35664	
2035	32608	25260	31644	35672	
2036	32800	25248	31648	35672	
2037	32928	25276	31628	35620	
2038	33152	25272	31636	35640	
2039	33280	25260	31624	35640	
2040	33456	25232	31648	35652	
2041	33536	25216	31652	35612	
2042	33632	25248	31616	35620	
2043	33680	25328	31656	35620	
2044	33648	25248	31648	35608	
2045	33648	25232	31640	35616	
2046	33680	25256	31652	35620	
2047	33680	25224	31668	35632	
2048	33568	25204	31636	35616	
2049	33600	25232	31652	35584	
2050	33504	25244	31644	35600	
2051	33424	25212	31604	35592	
2052	33344	25256	31636	35608	
2053	33424	25260	31620	35584	
2054	33808	25224	31620	35592	
2055	34336	25220	31648	35616	
2056	34592	25244	31624	35624	
2057	34304	25208	31636	35600	
2058	33664	25224	31644	35620	
2059	33616	25224	31636	35620	
2060	34256	25260	31648	35628	
2061	34384	25280	31636	35596	
2062	34144	25200	31620	35588	
2063	33392	25252	31624	35620	
2064	32688	25276	31632	35640	
2065	32944	25260	31648	35612	
2066	33440	25336	31640	35644	
2067	33472	25324	31664	35664	
2068	33216	25352	31660	35668	
2069	33168	25316	31672	35640	
2070	33808	25324	31708	35708	
2071	34880	25356	31700	35712	
2072	36320	25364	31720	35736	
2073	38992	25372	31764	35732	
2074	40800	25368	31796	35764	
2075	41392	25348	31792	35704	
2076	40944	25340	31768	35684	
2077	39968	25296	31680	35696	
2078	38736	25276	31596	35684	
2079	37472	25160	31492	35632	
2080	36176	25200	31392	35568	
2081	34960	25160	31380	35500	
2082	34016	25200	31424	35436	
2083	33088	25236	31492	35332	
2084	32160	25228	31552	35280	
2085	31568	25252	31556	35248	
2086	31024	25304	31520	35296	
2087	30688	25320	31472	35448	
2088	30528	25324	31468	35508	
2089	30368	25372	31564	35516	
2090	30336	25396	31688	35548	
2091	30272	25428	31712	35548	
2092	30272	25472	31732	35684	
2093	30272	25464	31708	35776	
2094	30304	25516	31708	35832	
2095	30320	25496	31756	35800	
2096	30320	25440	31768	35760	
2097	30352	25420	31792	35704	
2098	30448	25408	31768	35692	
2099	30464	25372	31688	35636	
2100	30496	25348	31600	35584	
2101	30528	25344	31548	35496	
2102	30608	25316	31528	35488	
2103	30608	25168	31464	35472	
2104	30704	25128	31472	35452	
2105	30704	25076	31456	35420	
2106	30720	25044	31480	35376	
2107	30704	25040	31488	35356	
2108	30768	25080	31528	35348	
2109	30736	25100	31548	35324	
2110	30736	25120	31540	35316	
2111	30768	25184	31588	35352	
2112	30800	25280	31584	35380	
2113	30848	25340	31596	35440	
2114	30848	25388	31592	35504	
2115	30832	25404	31560	35556	
2116	30912	25436	31536	35596	
2117	30928	25412	31560	35640	
2118	30960	25408	31540	35592	
2119	30960	25408	31520	35588	
2120	30944	25392	31544	35588	
2121	30944	25372	31592	35624	
2122	30976	25312	31588	35596	
2123	30992	25300	31568	35584	
2124	31024	25284	31616	35576	
2125	31024	25272	31640	35568	
2126	31024	25228	31640	35592	
2127	31008	25244	31600	35596	
2128	30976	25204	31576	35612	
2129	30928	25208	31576	35600	
2130	30880	25220	31588	35588	
2131	30832	25200	31600	35592	
2132	30816	25244	31564	35572	
2133	30880	25232	31560	35528	
2134	30928	25208	31568	35576	
2135	30912	25224	31564	35568	
2136	30992	25232	31564	35508	
2137	31088	25284	31568	35504	
2138	31072	25284	31552	35492	
2139	31216	25304	31536	35500	
2140	31264	25260	31544	35544	
2141	31296	25300	31544	35512	
2142	31408	25328	31536	35516	
2143	31456	25300	31548	35556	
2144	31488	25252	31536	35552	
2145	31488	25332	31560	35544	
2146	31488	25256	31548	35576	
2147	31472	25224	31576	35552	
2148	31424	25240	31596	35560	
2149	31392	25276	31572	35600	
2150	31392	25272	31580	35588	
2151	31376	25224	31612	35592	
2152	31312	25224	31624	35620	
2153	31248	25212	31644	35616	
2154	31216	25220	31612	35592	
2155	31104	25204	31612	35572	
2156	30976	25148	31600	35560	
2157	30928	25172	31600	35564	
2158	30960	25148	31568	35516	
2159	30928	25136	31564	35540	
2160	30896	25144	31584	35472	
2161	30992	25148	31532	35500	
2162	30960	25180	31560	35440	
2163	31072	25160	31564	35428	
2164	31184	25216	31580	35476	
2165	31200	25180	31580	35468	
2166	31296	25172	31576	35480	
2167	31408	25224	31584	35460	
2168	31520	25200	31572	35468	
2169	31600	25220	31564	35512	
2170	31728	25180	31548	35504	
2171	31840	25200	31548	35508	
2172	31904	25188	31572	35524	
2173	31968	25184	31568	35512	
2174	32096	25212	31568	35496	
2175	32208	25184	31592	35456	
2176	32272	25208	31576	35480	
2177	32256	25160	31572	35484	
2178	32368	25176	31604	35492	
2179	32464	25148	31568	35500	
2180	32560	25152	31592	35504	
2181	32624	25172	31616	35488	
2182	32720	25168	31580	35520	
2183	32736	25212	31568	35492	
2184	32768	25216	31580	35496	
2185	32784	25220	31532	35496	
2186	32800	25272	31532	35512	
2187	32784	25232	31540	35528	
2188	32848	25248	31528	35524	
2189	32912	25268	31552	35488	
2190	32944	25224	31540	35496	
2191	32976	25228	31556	35508	
2192	32960	25260	31560	35528	
2193	32944	25248	31544	35568	
2194	32976	25236	31592	35564	
2195	32960	25272	31584	35572	
2196	32912	25268	31584	35596	
2197	32960	25264	31584	35568	
2198	33024	25272	31584	35560	
2199	33104	25280	31560	35532	
2200	33040	25260	31564	35564	
2201	32848	25252	31584	35536	
2202	32688	25300	31576	35512	
2203	32656	25248	31584	35508	
2204	32624	25212	31596	35532	
2205	32384	25256	31572	35508	
2206	32336	25268	31564	35536	
2207	32336	25236	31572	35528	
2208	32272	25244	31560	35492	
2209	32048	25248	31572	35548	
2210	31824	25232	31580	35552	
2211	31696	25284	31572	35496	
2212	31520	25244	31568	35520	
2213	31456	25240	31572	35552	
2214	31552	25228	31564	35520	
2215	31552	25224	31588	35564	
2216	31648	25260	31580	35532	
2217	31776	25252	31564	35544	
2218	31952	25200	31548	35512	
2219	32096	25228	31548	35552	
2220	32128	25232	31552	35524	
2221	32304	25236	31568	35516	
2222	32512	25220	31556	35560	
2223	32560	25224	31532	35528	
2224	32528	25208	31544	35528	
2225	32816	25228	31560	35512	
2226	33024	25216	31544	35544	
2227	33136	25196	31548	35512	
2228	33312	25212	31548	35520	
2229	33504	25240	31540	35528	
2230	33696	25248	31568	35504	
2231	33728	25176	31528	35500	
2232	33904	25196	31536	35480	
2233	33936	25216	31540	35504	
2234	33936	25208	31564	35516	
2235	33872	25192	31564	35516	
2236	33904	25192	31560	35516	
2237	33856	25192	31552	35520	
2238	33792	25184	31560	35556	
2239	33776	25204	31560	35540	
2240	33680	25176	31564	35492	
2241	33600	25188	31568	35500	
2242	33648	25200	31568	35500	
2243	33680	25212	31560	35532	
2244	33760	25208	31584	35492	
2245	34160	25212	31552	35464	
2246	34656	25204	31580	35476	
2247	34544	25184	31604	35484	
2248	34144	25212	31556	35488	
2249	34000	25208	31564	35444	
2250	34624	25248	31568	35452	
2251	35200	25200	31560	35436	
2252	35152	25208	31560	35464	
2253	34608	25196	31572	35488	
2254	33584	25192	31544	35524	
2255	33296	25244	31560	35512	
2256	33616	25224	31548	35516	
2257	33776	25256	31556	35584	
2258	33328	25224	31576	35572	
2259	32784	25224	31608	35600	
2260	32624	25276	31568	35580	
2261	33360	25224	31612	35628	
2262	34368	25204	31648	35732	
2263	36272	25188	31680	35776	
2264	39072	25208	31692	35796	
2265	40672	25180	31756	35916	
2266	40656	25264	31716	35752	
2267	39840	25296	31676	35620	
2268	38512	25264	31580	35500	
2269	37216	25256	31480	35324	
2270	35904	25188	31388	35204	
2271	34688	25136	31300	35160	
2272	33808	25068	31308	35164	
2273	32864	25068	31316	35140	
2274	32080	25116	31316	35128	
2275	31472	25156	31332	35116	
2276	31024	25240	31332	35200	
2277	30752	25292	31348	35400	
2278	30656	25308	31356	35444	
2279	30528	25368	31452	35472	
2280	30448	25380	31604	35476	
2281	30448	25416	31696	35548	
2282	30384	25464	31764	35668	
2283	30336	25508	31752	35800	
2284	30368	25500	31748	35848	
2285	30384	25476	31728	35868	
2286	30448	25412	31756	35828	
2287	30528	25384	31796	35744	
2288	30544	25340	31784	35632	
2289	30512	25268	31748	35596	
2290	30496	25224	31684	35552	
2291	30464	25184	31608	35500	
2292	30576	25128	31528	35468	
2293	30592	25108	31488	35400	
2294	30640	25028	31504	35360	
2295	30688	25012	31496	35336	
2296	30688	25008	31508	35276	
2297	30688	25016	31492	35312	
2298	30720	25044	31500	35264	
2299	30688	25088	31508	35280	
2300	30720	25136	31508	35308	
2301	30736	25160	31500	35300	
2302	30752	25224	31536	35276	
2303	30784	25364	31564	35312	
2304	30768	25340	31564	35332	
2305	30704	25356	31576	35412	
2306	30704	25368	31568	35436	
2307	30688	25360	31572	35528	
2308	30656	25384	31572	35568	
2309	30688	25360	31568	35628	
2310	30720	25348	31592	35628	
2311	30736	25344	31592	35660	
2312	30752	25336	31600	35672	
2313	30688	25308	31640	35724	
2314	30688	25272	31640	35748	
2315	30672	25248	31648	35736	
2316	30672	25240	31628	35636	
2317	30672	25248	31648	35628	
2318	30736	25200	31604	35600	
2319	30832	25156	31612	35568	
2320	30736	25212	31600	35572	
2321	30832	25156	31576	35532	
2322	30880	25144	31548	35528	
2323	30832	25152	31556	35476	
2324	30832	25172	31544	35480	
2325	30848	25168	31480	35488	
2326	30944	25176	31524	35496	
2327	31008	25192	31520	35488	
2328	31088	25204	31504	35452	
2329	31264	25188	31496	35456	
2330	31264	25208	31520	35432	
2331	31312	25268	31512	35456	
2332	31344	25292	31520	35420	
2333	31376	25268	31508	35480	
2334	31440	25264	31524	35444	
2335	31456	25332	31544	35484	
2336	31520	25272	31504	35452	
2337	31520	25344	31536	35472	
2338	31504	25332	31544	35480	
2339	31568	25336	31532	35508	
2340	31472	25280	31536	35520	
2341	31424	25332	31524	35564	
2342	31392	25252	31524	35500	
2343	31280	25252	31564	35580	
2344	31200	25260	31564	35540	
2345	31232	25284	31580	35536	
2346	31264	25244	31580	35540	
2347	31152	25248	31596	35560	
2348	31168	25236	31572	35544	
2349	31200	25212	31572	35544	
2350	31248	25176	31592	35496	
2351	31264	25180	31572	35536	
2352	31360	25184	31552	35460	
2353	31424	25184	31580	35452	
2354	31520	25196	31576	35496	
2355	31648	25212	31592	35480	
2356	31760	25216	31612	35468	
2357	31872	25208	31608	35500	
2358	31856	25196	31616	35536	
2359	32032	25220	31564	35520	
2360	32144	25188	31592	35536	
2361	32160	25192	31576	35584	
2362	32160	25260	31508	35512	
2363	32256	25216	31548	35528	
2364	32368	25176	31540	35492	
2365	32400	25140	31580	35560	
2366	32464	25108	31592	35548	
2367	32512	25120	31632	35560	
2368	32528	25128	31620	35592	
2369	32576	25124	31596	35536	
2370	32640	25192	31572	35548	
2371	32688	25184	31572	35520	
2372	32736	25152	31568	35520	
2373	32784	25156	31568	35516	
2374	32752	25184	31564	35508	
2375	32832	25160	31564	35528	
2376	32848	25200	31552	35552	
2377	32848	25204	31564	35524	
2378	32880	25220	31568	35568	
2379	32896	25224	31540	35572	
2380	32976	25244	31552	35580	
2381	32992	25232	31532	35592	
2382	33024	25252	31552	35584	
2383	32992	25304	31544	35564	
2384	33008	25260	31568	35616	
2385	33040	25268	31556	35588	
2386	33088	25296	31552	35592	
2387	33120	25288	31556	35616	
2388	33152	25304	31588	35600	
2389	33200	25300	31556	35632	
2390	33120	25300	31568	35604	
2391	33168	25288	31584	35604	
2392	33072	25252	31560	35588	
2393	33008	25300	31580	35612	
2394	32832	25292	31592	35596	
2395	32720	25272	31576	35580	
2396	32656	25264	31576	35560	
2397	32512	25320	31572	35560	
2398	32464	25328	31588	35572	
2399	32352	25264	31596	35572	
2400	32272	25272	31560	35560	
2401	32080	25252	31576	35548	
2402	31920	25264	31584	35536	
2403	31728	25288	31588	35568	
2404	31616	25280	31584	35564	
2405	31488	25256	31576	35540	
2406	31440	25272	31592	35588	
2407	31552	25256	31576	35564	
2408	31632	25292	31576	35596	
2409	31696	25304	31564	35580	
2410	31856	25264	31580	35620	
2411	32016	25292	31584	35560	
2412	32160	25252	31576	35576	
2413	32240	25244	31596	35576	
2414	32384	25272	31612	35564	
2415	32512	25256	31604	35532	
2416	32544	25232	31616	35528	
2417	32704	25240	31592	35576	
2418	32976	25288	31596	35564	
2419	33120	25260	31596	35576	
2420	33376	25244	31556	35540	
2421	33568	25244	31568	35568	
2422	33712	25228	31568	35564	
2423	33808	25236	31576	35532	
2424	33856	25232	31568	35536	
2425	33856	25264	31588	35560	
2426	33824	25236	31600	35560	
2427	33808	25256	31540	35532	
2428	33824	25252	31556	35544	
2429	33792	25296	31540	35492	
2430	33808	25284	31532	35448	
2431	33696	25292	31544	35492	
2432	33632	25224	31560	35500	
2433	33616	25228	31584	35572	
2434	33552	25220	31588	35576	
2435	33616	25216	31576	35584	
2436	33776	25296	31576	35552	
2437	34208	25236	31568	35584	
2438	34752	25268	31548	35580	
2439	34880	25256	31588	35580	
2440	34528	25244	31576	35536	
2441	34304	25256	31592	35552	
2442	34880	25228	31584	35572	
2443	35328	25300	31552	35548	
2444	35184	25284	31560	35520	
2445	34496	25224	31572	35556	
2446	33280	25280	31540	35556	
2447	32624	25264	31548	35524	
2448	32672	25240	31548	35548	
2449	32768	25312	31560	35576	
2450	32320	25308	31564	35568	
2451	31760	25324	31588	35616	
2452	31584	25276	31572	35620	
2453	32352	25300	31588	35632	
2454	33456	25300	31572	35660	
2455	35312	25296	31624	35740	
2456	38192	25284	31636	35732	
2457	40208	25320	31708	35704	
2458	40448	25308	31712	35648	
2459	39920	25284	31732	35584	
2460	38816	25232	31764	35536	
2461	37536	25216	31728	35436	
2462	36224	25144	31644	35416	
2463	35088	25116	31492	35460	
2464	34128	25088	31348	35528	
2465	33296	25108	31304	35424	
2466	32480	25144	31272	35332	
2467	31808	25204	31312	35268	
2468	31264	25212	31384	35216	
2469	30896	25288	31388	35268	
2470	30784	25328	31392	35516	
2471	30800	25376	31436	35540	
2472	30768	25452	31504	35416	
2473	30688	25512	31580	35364	
2474	30720	25468	31652	35400	
2475	30704	25436	31684	35572	
2476	30624	25392	31724	35740	
2477	30688	25280	31748	35756	
2478	30784	25296	31760	35792	
2479	30784	25216	31740	35792	
2480	30816	25200	31752	35784	
2481	30864	25200	31728	35696	
2482	30848	25184	31732	35636	
2483	30832	25140	31676	35584	
2484	30832	25164	31648	35532	
2485	30912	25136	31564	35468	
2486	30896	25108	31548	35412	
2487	30880	25060	31512	35400	
2488	30880	25028	31508	35384	
2489	30944	25036	31520	35344	
2490	30960	25080	31484	35328	
2491	31024	25108	31480	35336	
2492	30976	25136	31504	35312	
2493	31024	25192	31488	35280	
2494	31008	25248	31492	35268	
2495	31072	25260	31520	35300	
2496	31088	25344	31520	35292	
2497	31040	25360	31556	35320	
2498	31088	25356	31548	35368	
2499	31040	25416	31524	35408	
2500	31088	25424	31520	35392	
2501	31008	25404	31524	35360	
2502	30976	25396	31544	35392	
2503	31024	25376	31584	35436	
2504	31008	25288	31596	35504	
2505	30992	25304	31632	35556	
2506	30960	25304	31608	35572	
2507	30944	25248	31628	35612	
2508	30960	25212	31628	35636	
2509	31008	25148	31604	35644	
2510	30992	25136	31624	35660	
2511	31056	25136	31636	35656	
2512	31120	25152	31608	35608	
2513	31136	25132	31608	35592	
2514	31168	25120	31564	35596	
2515	31104	25144	31564	35592	
2516	31136	25156	31532	35584	
2517	31232	25132	31512	35588	
2518	31248	25172	31496	35504	
2519	31520	25148	31440	35536	
2520	31488	25160	31440	35516	
2521	31568	25164	31464	35488	
2522	31632	25212	31484	35480	
2523	31680	25200	31472	35444	
2524	31648	25196	31496	35416	
2525	31584	25228	31468	35412	
2526	31728	25240	31520	35432	
2527	31776	25252	31496	35412	
2528	31808	25240	31500	35416	
2529	31792	25224	31504	35476	
2530	31760	25232	31520	35472	
2531	31664	25280	31496	35468	
2532	31552	25244	31520	35504	
2533	31520	25300	31524	35476	
2534	31520	25348	31528	35444	
2535	31488	25348	31552	35420	
2536	31376	25336	31544	35420	
2537	31344	25352	31576	35440	
2538	31184	25296	31568	35448	
2539	31072	25164	31604	35492	
2540	30992	25180	31576	35504	
2541	30944	25160	31572	35508	
2542	31040	25124	31556	35548	
2543	31072	25148	31548	35536	
2544	31120	25132	31544	35504	
2545	31248	25180	31556	35492	
2546	31296	25220	31556	35484	
2547	31376	25184	31544	35500	
2548	31440	25196	31552	35472	
2549	31536	25176	31560	35464	
2550	31600	25184	31568	35476	
2551	31696	25176	31568	35516	
2552	31824	25204	31576	35492	
2553	31936	25184	31572	35552	
2554	31968	25208	31548	35592	
2555	31952	25208	31552	35568	
2556	32032	25168	31540	35540	
2557	32128	25160	31548	35540	
2558	32224	25164	31576	35512	
2559	32304	25176	31552	35492	
2560	32352	25172	31564	35496	
2561	32368	25200	31568	35452	
2562	32432	25180	31576	35396	
2563	32544	25152	31572	35408	
2564	32480	25168	31580	35404	
2565	32496	25168	31572	35360	
2566	32640	25148	31560	35384	
2567	32640	25188	31548	35396	
2568	32704	25172	31524	35456	
2569	32624	25216	31564	35428	
2570	32608	25192	31532	35460	
2571	32592	25256	31564	35484	
2572	32576	25232	31556	35500	
2573	32688	25260	31580	35484	
2574	32784	25252	31568	35580	
2575	32864	25256	31564	35596	
2576	32832	25260	31556	35600	
2577	32816	25248	31556	35628	
2578	32800	25272	31544	35600	
2579	32816	25272	31548	35592	
2580	32832	25276	31564	35584	
2581	32896	25244	31568	35564	
2582	32944	25276	31560	35584	
2583	33008	25260	31532	35536	
2584	32976	25324	31556	35532	
2585	33008	25280	31572	35532	
2586	33056	25204	31556	35488	
2587	33088	25232	31576	35472	
2588	33120	25200	31556	35484	
2589	33104	25216	31568	35500	
2590	33088	25212	31560	35464	
2591	33056	25216	31544	35480	
2592	33072	25220	31560	35440	
2593	33056	25212	31552	35480	
2594	32944	25252	31548	35452	
2595	32800	25268	31560	35416	
2596	32672	25216	31560	35396	
2597	32608	25236	31572	35392	
2598	32400	25220	31556	35424	
2599	32320	25252	31564	35436	
2600	32288	25176	31548	35448	
2601	32240	25200	31548	35504	
2602	32016	25204	31544	35496	
2603	31872	25204	31572	35476	
2604	31648	25180	31532	35512	
2605	31520	25220	31504	35516	
2606	31376	25200	31540	35516	
2607	31392	25212	31520	35504	
2608	31424	25212	31572	35484	
2609	31568	25188	31536	35500	
2610	31648	25236	31532	35472	
2611	31808	25188	31552	35488	
2612	31856	25224	31572	35492	
2613	31920	25200	31556	35484	
2614	32016	25156	31540	35496	
2615	32160	25192	31560	35496	
2616	32288	25200	31556	35468	
2617	32480	25248	31532	35472	
2618	32624	25196	31540	35496	
2619	32848	25216	31540	35472	
2620	32976	25216	31556	35444	
2621	33072	25188	31540	35428	
2622	33280	25216	31548	35456	
2623	33504	25192	31552	35476	
2624	33584	25188	31556	35484	
2625	33568	25196	31532	35480	
2626	33600	25184	31548	35480	
2627	33600	25188	31556	35476	
2628	33632	25168	31564	35480	
2629	33696	25168	31536	35460	
2630	33728	25188	31548	35456	
2631	33600	25168	31556	35420	
2632	33504	25188	31556	35404	
2633	33456	25184	31572	35424	
2634	33392	25168	31536	35416	
2635	33328	25220	31540	35460	
2636	33408	25172	31548	35408	
2637	33744	25164	31548	35420	
2638	34304	25156	31552	35416	
2639	34736	25156	31552	35424	
2640	34720	25180	31544	35408	
2641	34240	25192	31548	35428	
2642	34352	25208	31556	35464	
2643	34592	25188	31544	35440	
2644	34480	25216	31568	35472	
2645	33888	25216	31560	35484	
2646	32656	25244	31560	35488	
2647	31232	25220	31544	35524	
2648	30944	25260	31568	35484	
2649	30912	25224	31556	35560	
2650	30848	25240	31572	35520	
2651	30304	25204	31564	35556	
2652	29824	25232	31592	35572	
2653	30272	25196	31596	35596	
2654	31600	25200	31584	35644	
2655	33152	25196	31592	35672	
2656	36048	25168	31588	35776	
2657	39088	25156	31580	35792	
2658	40416	25108	31624	35860	
2659	40448	25128	31656	35800	
2660	39648	25148	31696	35724	
2661	38496	25168	31744	35568	
2662	37264	25176	31772	35376	
2663	36144	25232	31776	35288	
2664	35200	25184	31728	35220	
2665	34336	25176	31664	35184	
2666	33408	25164	31564	35108	
2667	32688	25140	31536	35056	
2668	32048	25172	31492	34976	
2669	31680	25324	31384	34972	
2670	31584	25352	31276	35128	
2671	31440	25368	31184	35340	
2672	31424	25352	31128	35524	
2673	31328	25328	31148	35600	
2674	31344	25396	31276	35604	
2675	31312	25452	31472	35572	
2676	31280	25452	31624	35592	
2677	31184	25436	31676	35704	
2678	31200	25384	31700	35704	
2679	31168	25352	31740	35764	
2680	31136	25276	31744	35748	
2681	31168	25212	31768	35660	
2682	31184	25204	31792	35604	
2683	31184	25168	31788	35564	
2684	31296	25160	31740	35504	
2685	31296	25164	31736	35448	
2686	31328	25100	31700	35428	
2687	31280	25052	31676	35368	
2688	31312	25040	31668	35356	
2689	31328	25068	31584	35320	
2690	31344	25060	31496	35320	
2691	31424	25076	31412	35360	
2692	31456	25120	31372	35396	
2693	31408	25128	31344	35420	
2694	31472	25188	31368	35432	
2695	31472	25288	31392	35376	
2696	31488	25308	31464	35340	
2697	31488	25344	31512	35316	
2698	31488	25384	31564	35324	
2699	31488	25372	31572	35356	
2700	31408	25352	31600	35364	
2701	31376	25340	31600	35436	
2702	31424	25368	31556	35480	
2703	31456	25360	31536	35484	
2704	31456	25404	31528	35532	
2705	31440	25368	31548	35528	
2706	31472	25380	31560	35528	
2707	31408	25300	31568	35560	
2708	31376	25276	31608	35524	
2709	31440	25176	31624	35552	
2710	31472	25204	31632	35564	
2711	31472	25200	31648	35580	
2712	31552	25176	31636	35548	
2713	31552	25148	31632	35592	
2714	31584	25136	31616	35572	
2715	31504	25144	31600	35528	
2716	31552	25128	31568	35524	
2717	31600	25112	31576	35580	
2718	31728	25128	31548	35576	
2719	31792	25152	31520	35608	
2720	31808	25168	31520	35504	
2721	31872	25188	31528	35432	
2722	31952	25176	31512	35428	
2723	32032	25204	31548	35416	
2724	32064	25216	31536	35424	
2725	32144	25232	31536	35400	
2726	32272	25224	31556	35412	
2727	32304	25264	31556	35432	
2728	32272	25204	31520	35452	
2729	32224	25236	31528	35468	
2730	32208	25252	31536	35464	
2731	32048	25284	31556	35512	
2732	32032	25220	31544	35484	
2733	31920	25212	31576	35504	
2734	31792	25224	31588	35496	
2735	31680	25192	31588	35488	
2736	31616	25176	31608	35524	
2737	31440	25152	31636	35516	
2738	31264	25164	31644	35524	
2739	31152	25132	31616	35476	
2740	31040	25132	31608	35488	
2741	30912	25136	31604	35496	
2742	30960	25120	31596	35524	
2743	31024	25096	31564	35500	
2744	31008	25108	31572	35472	
2745	31072	25100	31556	35364	
2746	31152	25132	31540	35368	
2747	31200	25144	31556	35420	
2748	31264	25140	31576	35352	
2749	31344	25172	31576	35412	
2750	31408	25184	31564	35428	
2751	31504	25156	31552	35452	
2752	31600	25176	31572	35476	
2753	31728	25172	31572	35508	
2754	31776	25180	31548	35516	
2755	31888	25192	31556	35516	
2756	31936	25180	31556	35508	
2757	32064	25188	31556	35488	
2758	32176	25180	31572	35492	
2759	32192	25220	31600	35496	
2760	32368	25164	31588	35456	
2761	32400	25160	31632	35504	
2762	32432	25156	31620	35452	
2763	32448	25144	31600	35484	
2764	32528	25128	31636	35488	
2765	32560	25124	31612	35472	
2766	32672	25168	31632	35464	
2767	32688	25160	31600	35448	
2768	32704	25164	31616	35452	
2769	32688	25204	31604	35496	
2770	32768	25204	31604	35476	
2771	32752	25224	31564	35468	
2772	32848	25228	31576	35524	
2773	32768	25248	31572	35508	
2774	32800	25236	31572	35512	
2775	32816	25256	31544	35572	
2776	32864	25244	31556	35548	
2777	32960	25232	31576	35580	
2778	32880	25220	31548	35564	
2779	32848	25228	31568	35556	
2780	32848	25264	31572	35556	
2781	32944	25248	31568	35520	
2782	32992	25308	31572	35512	
2783	33040	25272	31564	35524	
2784	32976	25252	31576	35520	
2785	33024	25240	31536	35512	
2786	33024	25256	31544	35532	
2787	33008	25276	31568	35548	
2788	33040	25284	31548	35500	
2789	33120	25292	31540	35496	
2790	33088	25220	31568	35512	
2791	33056	25256	31568	35508	
2792	33120	25284	31556	35528	
2793	33152	25240	31552	35540	
2794	33120	25252	31560	35524	
2795	33072	25220	31564	35516	
2796	33104	25224	31572	35548	
2797	32992	25224	31564	35552	
2798	32992	25244	31580	35520	
2799	32960	25212	31576	35544	
2800	32976	25216	31560	35540	
2801	32880	25184	31580	35528	
2802	32736	25188	31616	35572	
2803	32608	25168	31600	35536	
2804	32512	25172	31588	35516	
2805	32400	25188	31600	35496	
2806	32400	25148	31568	35532	
2807	32288	25168	31584	35488	
2808	32144	25092	31592	35548	
2809	31936	25076	31600	35620	
2810	31696	25128	31564	35552	
2811	31392	25128	31560	35500	
2812	31296	25176	31552	35488	
2813	31264	25172	31556	35492	
2814	31264	25164	31560	35472	
2815	31312	25156	31560	35476	
2816	31424	25180	31564	35448	
2817	31584	25152	31588	35472	
2818	31632	25164	31560	35452	
2819	31760	25156	31592	35396	
2820	31888	25164	31552	35428	
2821	32016	25160	31592	35416	
2822	32144	25156	31592	35428	
2823	32304	25168	31596	35468	
2824	32464	25160	31596	35456	
2825	32624	25164	31588	35464	
2826	32784	25160	31568	35492	
2827	32912	25168	31596	35504	
2828	33104	25156	31588	35516	
2829	33312	25196	31608	35488	
2830	33440	25176	31608	35500	
2831	33472	25172	31560	35504	
2832	33568	25152	31576	35508	
2833	33536	25228	31584	35460	
2834	33552	25188	31588	35488	
2835	33456	25204	31572	35476	
2836	33440	25188	31552	35488	
2837	33440	25228	31572	35444	
2838	33392	25244	31544	35480	
2839	33424	25240	31564	35476	
2840	33328	25252	31592	35424	
2841	33328	25244	31564	35424	
2842	33232	25272	31556	35492	
2843	33296	25256	31580	35492	
2844	33744	25232	31552	35468	
2845	34128	25232	31564	35452	
2846	34496	25220	31556	35444	
2847	34208	25236	31548	35484	
2848	33584	25284	31564	35464	
2849	33600	25264	31544	35464	
2850	33792	25232	31564	35496	
2851	33568	25248	31552	35500	
2852	32880	25228	31528	35492	
2853	31568	25228	31552	35512	
2854	30368	25252	31556	35548	
2855	30320	25240	31524	35516	
2856	30496	25224	31540	35528	
2857	30672	25272	31564	35580	
2858	30384	25216	31568	35600	
2859	30176	25272	31572	35600	
2860	30912	25228	31548	35624	
2861	32480	25236	31564	35648	
2862	34304	25276	31572	35680	
2863	37488	25264	31576	35744	
2864	40032	25276	31628	35800	
2865	41056	25280	31636	35824	
2866	40912	25292	31692	35772	
2867	40144	25300	31728	35692	
2868	39008	25256	31744	35512	
2869	37712	25276	31724	35304	
2870	36512	25264	31632	35168	
2871	35440	25248	31460	35052	
2872	34608	25244	31364	35028	
2873	33680	25156	31276	35076	
2874	32864	25140	31260	35096	
2875	32208	25120	31292	35088	
2876	31744	25084	31332	35140	
2877	31424	25164	31320	35248	
2878	31344	25252	31332	35340	
2879	31280	25320	31340	35356	
2880	31200	25356	31424	35384	
2881	31152	25404	31568	35412	
2882	31136	25384	31716	35576	
2883	31136	25444	31720	35668	
2884	31168	25400	31700	35720	
2885	31200	25280	31736	35828	
2886	31104	25224	31728	35892	
2887	31120	25184	31708	35912	
2888	31152	25156	31672	35816	
2889	31136	25164	31692	35680	
2890	31168	25192	31676	35596	
2891	31232	25168	31604	35508	
2892	31248	25100	31624	35440	
2893	31232	25084	31572	35372	
2894	31280	25032	31556	35284	
2895	31344	25032	31548	35232	
2896	31312	25052	31524	35200	
2897	31312	25076	31516	35160	
2898	31344	25068	31500	35252	
2899	31264	25080	31512	35288	
2900	31376	25112	31488	35344	
2901	31312	25120	31512	35312	
2902	31232	25160	31524	35304	
2903	31248	25256	31552	35316	
2904	31232	25284	31596	35316	
2905	31264	25292	31612	35324	
2906	31184	25332	31608	35392	
2907	31200	25320	31616	35420	
2908	31136	25316	31584	35504	
2909	31200	25316	31580	35564	
2910	31216	25316	31576	35584	
2911	31200	25272	31608	35600	
2912	31136	25296	31616	35596	
2913	31136	25236	31664	35600	
2914	31200	25224	31672	35584	
2915	31248	25172	31672	35576	
2916	31280	25200	31684	35592	
2917	31344	25164	31676	35548	
2918	31296	25128	31684	35584	
2919	31312	25140	31684	35580	
2920	31296	25124	31640	35564	
2921	31328	25136	31644	35576	
2922	31312	25132	31604	35528	
2923	31440	25136	31544	35524	
2924	31488	25172	31576	35492	
2925	31520	25160	31560	35476	
2926	31584	25184	31552	35448	
2927	31552	25176	31548	35432	
2928	31568	25188	31548	35460	
2929	31680	25228	31532	35416	
2930	31648	25232	31564	35444	
2931	31632	25288	31564	35460	
2932	31504	25256	31520	35440	
2933	31584	25252	31564	35456	
2934	31648	25248	31528	35472	
2935	31648	25280	31556	35464	
2936	31680	25300	31552	35472	
2937	31568	25252	31584	35472	
2938	31584	25264	31588	35492	
2939	31520	25256	31620	35516	
2940	31408	25260	31648	35540	
2941	31344	25276	31640	35552	
2942	31312	25276	31640	35544	
2943	31264	25268	31656	35588	
2944	31184	25256	31668	35576	
2945	31104	25204	31688	35544	
2946	31008	25212	31640	35548	
2947	30992	25200	31604	35532	
2948	30976	25172	31656	35616	
2949	31008	25172	31604	35540	
2950	31008	25156	31612	35464	
2951	31040	25168	31620	35456	
2952	31120	25196	31584	35456	
2953	31344	25224	31652	35468	
2954	31392	25216	31608	35480	
2955	31456	25228	31616	35436	
2956	31504	25240	31596	35484	
2957	31664	25224	31580	35496	
2958	31776	25240	31596	35512	
2959	31888	25196	31640	35548	
2960	31984	25220	31572	35528	
2961	31984	25208	31580	35528	
2962	32032	25188	31596	35484	
2963	32160	25192	31576	35448	
2964	32192	25172	31588	35448	
2965	32224	25196	31620	35440	
2966	32384	25192	31620	35416	
2967	32496	25172	31656	35424	
2968	32592	25176	31668	35448	
2969	32592	25176	31672	35508	
2970	32640	25156	31660	35456	
2971	32704	25168	31640	35448	
2972	32704	25188	31652	35448	
2973	32768	25180	31644	35460	
2974	32784	25200	31640	35452	
2975	32912	25220	31636	35488	
2976	32912	25212	31636	35496	
2977	32832	25256	31584	35484	
2978	32832	25244	31584	35512	
2979	32896	25248	31640	35508	
2980	32928	25240	31612	35512	
2981	32912	25232	31640	35556	
2982	33040	25216	31640	35536	
2983	33056	25244	31604	35572	
2984	33040	25252	31644	35544	
2985	33008	25276	31588	35584	
2986	33040	25300	31616	35560	
2987	33040	25276	31636	35516	
2988	33024	25284	31620	35548	
2989	33072	25228	31628	35532	
2990	33200	25232	31636	35540	
2991	33200	25252	31612	35500	
2992	33216	25272	31572	35552	
2993	33216	25248	31604	35512	
2994	33216	25256	31624	35528	
2995	33216	25220	31616	35500	
2996	33232	25228	31628	35520	
2997	33184	25260	31600	35484	
2998	33152	25236	31600	35544	
2999	33152	25244	31592	35500	
3000	33120	25216	31600	35516	
3001	33024	25236	31600	35500	
3002	32928	25236	31604	35480	
3003	32944	25244	31612	35524	
3004	32912	25248	31616	35520	
3005	32912	25240	31636	35540	
3006	32960	25228	31592	35492	
3007	32928	25252	31620	35508	
3008	32928	25264	31652	35544	
3009	32960	25256	31592	35524	
3010	32912	25240	31604	35500	
3011	32880	25204	31636	35480	
3012	32720	25232	31648	35488	
3013	32608	25240	31628	35472	
3014	32432	25228	31608	35468	
3015	32384	25228	31620	35492	
3016	32416	25216	31632	35516	
3017	32400	25196	31648	35484	
3018	32240	25256	31636	35492	
3019	31968	25216	31672	35488	
3020	31584	25244	31656	35500	
3021	31280	25224	31624	35516	
3022	31232	25184	31652	35544	
3023	31168	25252	31648	35504	
3024	31120	25236	31664	35496	
3025	31136	25216	31616	35476	
3026	31168	25160	31644	35488	
3027	31296	25184	31628	35492	
3028	31424	25192	31640	35500	
3029	31552	25148	31620	35504	
3030	31744	25180	31612	35516	
3031	31856	25164	31652	35492	
3032	32048	25152	31636	35516	
3033	32160	25140	31640	35484	
3034	32352	25160	31596	35492	
3035	32560	25152	31608	35516	
3036	32816	25164	31604	35512	
3037	32992	25164	31600	35488	
3038	33168	25164	31620	35508	
3039	33264	25148	31620	35544	
3040	33376	25180	31624	35520	
3041	33424	25180	31616	35512	
3042	33472	25196	31632	35524	
3043	33408	25184	31616	35524	
3044	33360	25184	31632	35520	
3045	33392	25164	31624	35484	
3046	33408	25164	31632	35480	
3047	33424	25164	31656	35520	
3048	33392	25200	31640	35500	
3049	33216	25200	31656	35480	
3050	33248	25196	31644	35520	
3051	33200	25204	31648	35504	
3052	33248	25216	31648	35476	
3053	33360	25216	31616	35488	
3054	33680	25212	31632	35496	
3055	34128	25188	31632	35448	
3056	34080	25188	31612	35488	
3057	33440	25228	31640	35496	
3058	32560	25192	31640	35512	
3059	32384	25212	31664	35480	
3060	32608	25192	31656	35472	
3061	32688	25216	31648	35464	
3062	32416	25244	31636	35504	
3063	31728	25220	31624	35512	
3064	31088	25196	31636	35468	
3065	31600	25224	31660	35512	
3066	32000	25288	31668	35476	
3067	32096	25252	31652	35520	
3068	31952	25272	31640	35520	
3069	32112	25280	31696	35540	
3070	33120	25244	31652	35568	
3071	34448	25252	31652	35612	
3072	36384	25256	31672	35648	
3073	39104	25316	31692	35636	
3074	40912	25244	31732	35688	
3075	41424	25184	31620	35880	
3076	40928	25272	31692	35944	
3077	40064	25260	31736	35716	
3078	38992	25268	31752	35516	
3079	37728	25272	31752	35320	
3080	36448	25224	31620	35168	
3081	35248	25124	31516	35132	
3082	34272	25076	31408	35208	
3083	33392	25068	31372	35288	
3084	32528	25088	31416	35320	
3085	31824	25132	31456	35256	
3086	31344	25180	31496	35288	
3087	30992	25316	31500	35408	
3088	30832	25304	31536	35432	
3089	30704	25348	31596	35476	
3090	30576	25368	31692	35484	
3091	30656	25356	31732	35620	
3092	30608	25440	31728	35652	
3093	30576	25464	31756	35740	
3094	30608	25500	31744	35744	
3095	30672	25432	31756	35720	
3096	30672	25404	31764	35652	
3097	30704	25396	31776	35596	
3098	30816	25352	31708	35532	
3099	30800	25328	31628	35516	
3100	30832	25260	31556	35480	
3101	30928	25228	31556	35508	
3102	30992	25160	31528	35512	
3103	30928	25100	31528	35448	
3104	30992	25088	31556	35408	
3105	30944	25052	31532	35376	
3106	30880	25036	31556	35356	
3107	30880	25032	31572	35388	
3108	30896	25060	31596	35344	
3109	30864	25076	31588	35372	
3110	30928	25096	31628	35392	
3111	30880	25144	31628	35388	
3112	30896	25192	31652	35420	
3113	30944	25276	31664	35456	
3114	30928	25312	31636	35484	
3115	30928	25336	31572	35524	
3116	30944	25344	31556	35568	
3117	30912	25324	31528	35552	
3118	30944	25308	31564	35544	
3119	31088	25312	31592	35524	
3120	31056	25312	31600	35512	
3121	31056	25236	31620	35476	
3122	31008	25304	31600	35500	
3123	30912	25236	31632	35488	
3124	30928	25188	31656	35504	
3125	30912	25160	31700	35500	
3126	30864	25184	31672	35548	
3127	30880	25192	31660	35496	
3128	30896	25152	31656	35536	
3129	30848	25196	31680	35512	
3130	30816	25168	31648	35476	
3131	30784	25212	31628	35484	
3132	30720	25272	31636	35488	
3133	30704	25236	31640	35464	
3134	30784	25232	31624	35428	
3135	30896	25228	31600	35408	
3136	30912	25240	31604	35420	
3137	30880	25232	31580	35412	
3138	30896	25232	31640	35424	
3139	30912	25280	31600	35376	
3140	30896	25280	31568	35384	
3141	30928	25260	31592	35416	
3142	30928	25308	31584	35440	
3143	31040	25324	31616	35436	
3144	31104	25288	31580	35440	
3145	31152	25332	31592	35440	
3146	31200	25276	31592	35484	
3147	31168	25296	31612	35504	
3148	31184	25288	31628	35516	
3149	31184	25324	31588	35496	
3150	31200	25292	31636	35508	
3151	31232	25264	31640	35500	
3152	31248	25280	31600	35488	
3153	31232	25220	31636	35492	
3154	31184	25228	31592	35516	
3155	31120	25248	31640	35472	
3156	31104	25180	31592	35484	
3157	31088	25164	31604	35480	
3158	31040	25164	31576	35440	
3159	31024	25160	31576	35444	
3160	31040	25156	31588	35420	
3161	31136	25168	31576	35420	
3162	31200	25148	31604	35424	
3163	31200	25144	31576	35388	
3164	31296	25164	31600	35452	
3165	31376	25180	31592	35456	
3166	31424	25188	31600	35460	
3167	31536	25200	31612	35500	
3168	31632	25200	31608	35488	
3169	31728	25224	31596	35540	
3170	31888	25160	31608	35536	
3171	31952	25188	31600	35528	
3172	32032	25196	31572	35488	
3173	32048	25192	31564	35492	
3174	32208	25164	31580	35456	
3175	32400	25140	31552	35452	
3176	32448	25196	31572	35436	
3177	32544	25180	31588	35420	
3178	32640	25160	31612	35448	
3179	32624	25140	31600	35436	
3180	32688	25188	31636	35448	
3181	32816	25192	31580	35464	
3182	32832	25200	31576	35440	
3183	32848	25248	31580	35476	
3184	32848	25208	31588	35488	
3185	32928	25292	31596	35476	
3186	32976	25240	31588	35488	
3187	33088	25272	31584	35496	
3188	33120	25252	31572	35496	
3189	33120	25212	31576	35540	
3190	33104	25212	31584	35520	
3191	33120	25220	31576	35536	
3192	33056	25228	31612	35580	
3193	33040	25220	31588	35576	
3194	33024	25196	31628	35556	
3195	33104	25228	31632	35612	
3196	33072	25256	31644	35584	
3197	33072	25216	31632	35604	
3198	33168	25284	31612	35612	
3199	33264	25236	31612	35596	
3200	33280	25264	31628	35604	
3201	33280	25236	31608	35592	
3202	33232	25220	31616	35520	
3203	33312	25244	31576	35544	
3204	33280	25244	31600	35516	
3205	33200	25236	31604	35512	
3206	33216	25220	31592	35484	
3207	33232	25220	31556	35524	
3208	33168	25280	31564	35520	
3209	33152	25252	31576	35492	
3210	33136	25240	31568	35484	
3211	33200	25216	31604	35500	
3212	33136	25232	31584	35476	
3213	33184	25284	31568	35512	
3214	33168	25248	31592	35488	
3215	33200	25264	31600	35504	
3216	33152	25252	31620	35496	
3217	33152	25260	31600	35532	
3218	33056	25252	31592	35504	
3219	33040	25264	31584	35528	
3220	32928	25220	31620	35500	
3221	32800	25252	31624	35512	
3222	32608	25208	31588	35520	
3223	32448	25256	31556	35528	
3224	32384	25212	31616	35512	
3225	32304	25248	31604	35528	
3226	32240	25228	31616	35572	
3227	32128	25228	31600	35520	
3228	31936	25236	31588	35572	
3229	31664	25240	31560	35524	
3230	31472	25204	31600	35524	
3231	31280	25168	31596	35508	
3232	31232	25216	31584	35560	
3233	31184	25232	31588	35504	
3234	31120	25232	31592	35488	
3235	31200	25220	31592	35516	
3236	31200	25216	31596	35480	
3237	31344	25224	31592	35500	
3238	31600	25184	31612	35492	
3239	31712	25212	31572	35488	
3240	31824	25180	31580	35456	
3241	31984	25204	31580	35516	
3242	32096	25232	31580	35492	
3243	32240	25200	31576	35464	
3244	32416	25188	31588	35468	
3245	32736	25196	31588	35452	
3246	32928	25204	31572	35476	
3247	33120	25196	31608	35464	
3248	33264	25228	31604	35432	
3249	33376	25224	31584	35456	
3250	33472	25220	31596	35448	
3251	33472	25228	31612	35460	
3252	33520	25196	31576	35488	
3253	33504	25236	31600	35428	
3254	33504	25204	31620	35452	
3255	33520	25212	31600	35480	
3256	33488	25220	31652	35404	
3257	33440	25204	31628	35480	
3258	33456	25256	31588	35480	
3259	33504	25200	31608	35488	
3260	33504	25176	31588	35516	
3261	33408	25112	31592	35616	
3262	33440	25248	31556	35636	
3263	33568	25272	31580	35572	
3264	33872	25300	31588	35528	
3265	34176	25248	31588	35516	
3266	33968	25256	31584	35448	
3267	33312	25240	31612	35392	
3268	32816	25248	31608	35372	
3269	33232	25244	31596	35392	
3270	33648	25224	31584	35372	
3271	33840	25204	31612	35364	
3272	33360	25244	31568	35328	
3273	32352	25200	31556	35348	
3274	32080	25220	31556	35380	
3275	32576	25220	31576	35404	
3276	32816	25180	31560	35460	
3277	32560	25180	31564	35460	
3278	32352	25216	31556	35448	
3279	32560	25208	31608	35504	
3280	33664	25256	31588	35524	
3281	34848	25224	31608	35544	
3282	36960	25160	31632	35692	
3283	39616	25148	31620	35820	
3284	41040	25232	31672	35804	
3285	40960	25252	31708	35720	
3286	40208	25244	31756	35584	
3287	38960	25240	31764	35504	
3288	37776	25200	31688	35320	
3289	36480	25200	31556	35208	
3290	35344	25112	31436	35164	
3291	34368	25056	31320	35188	
3292	33408	25072	31252	35200	
3293	32576	25124	31324	35208	
3294	31840	25184	31376	35196	
3295	31328	25196	31432	35256	
3296	30960	25256	31404	35324	
3297	30736	25252	31408	35380	
3298	30624	25344	31492	35424	
3299	30576	25372	31628	35476	
3300	30560	25400	31732	35500	
3301	30496	25428	31784	35656	
3302	30432	25456	31760	35716	
3303	30448	25404	31712	35812	
3304	30432	25396	31740	35804	
3305	30464	25352	31708	35732	
3306	30512	25268	31728	35612	
3307	30528	25188	31736	35560	
3308	30640	25172	31684	35448	
3309	30704	25120	31644	35412	
3310	30768	25116	31560	35408	
3311	30752	25092	31552	35384	
3312	30768	25048	31472	35364	
3313	30784	25008	31468	35316	
3314	30768	25000	31492	35324	
3315	30784	25016	31532	35280	
3316	30800	24988	31516	35260	
3317	30784	25036	31516	35260	
3318	30768	25092	31504	35268	
3319	30784	25124	31512	35268	
3320	30816	25220	31532	35264	
3321	30880	25212	31544	35280	
3322	30832	25284	31564	35296	
3323	30800	25312	31568	35308	
3324	30784	25320	31580	35344	
3325	30864	25344	31540	35372	
3326	30832	25348	31568	35420	
3327	30832	25348	31548	35440	
3328	30816	25384	31524	35456	
3329	30736	25324	31532	35464	
3330	30720	25336	31536	35528	
3331	30784	25316	31560	35564	
3332	30736	25324	31560	35564	
3333	30752	25360	31524	35540	
3334	30736	25320	31548	35488	
3335	30672	25220	31564	35512	
3336	30672	25196	31612	35536	
3337	30640	25172	31612	35560	
3338	30656	25144	31620	35528	
3339	30624	25180	31636	35500	
3340	30720	25148	31612	35504	
3341	30656	25144	31580	35532	
3342	30624	25128	31592	35516	
3343	30608	25124	31560	35472	
3344	30608	25140	31520	35468	
3345	30688	25152	31536	35448	
3346	30768	25128	31508	35432	
3347	30880	25140	31500	35432	
3348	30928	25128	31536	35380	
3349	31056	25148	31476	35372	
3350	31120	25144	31520	35360	
3351	31184	25156	31496	35380	
3352	31296	25164	31500	35380	
3353	31328	25184	31476	35356	
3354	31392	25204	31512	35364	
3355	31504	25208	31504	35404	
3356	31504	25220	31472	35388	
3357	31504	25196	31504	35416	
3358	31552	25212	31512	35436	
3359	31600	25204	31524	35428	
3360	31568	25208	31552	35440	
3361	31488	25248	31564	35468	
3362	31424	25232	31544	35448	
3363	31376	25204	31556	35452	
3364	31264	25252	31560	35456	
3365	31264	25344	31544	35388	
3366	31168	25168	31556	35444	
3367	31136	25160	31596	35472	
3368	31152	25112	31612	35496	
3369	31152	25116	31632	35508	
3370	31200	25080	31616	35580	
3371	31216	25112	31596	35528	
3372	31328	25092	31564	35500	
3373	31424	25144	31572	35460	
3374	31568	25184	31552	35348	
3375	31600	25172	31556	35352	
3376	31712	25172	31556	35376	
3377	31904	25144	31580	35380	
3378	31920	25156	31568	35392	
3379	32032	25132	31560	35432	
3380	32080	25164	31572	35392	
3381	32160	25176	31540	35444	
3382	32272	25168	31544	35448	
3383	32384	25184	31544	35456	
3384	32512	25180	31536	35464	
3385	32528	25168	31532	35456	
3386	32608	25188	31512	35432	
3387	32640	25148	31560	35396	
3388	32624	25144	31568	35412	
3389	32656	25180	31564	35396	
3390	32736	25160	31576	35436	
3391	32816	25152	31596	35424	
3392	32848	25152	31560	35420	
3393	32880	25176	31560	35400	
3394	32848	25168	31584	35428	
3395	32912	25148	31548	35404	
3396	32896	25228	31548	35404	
3397	32896	25272	31504	35360	
3398	32960	25280	31532	35368	
3399	33024	25188	31568	35400	
3400	32976	25228	31576	35424	
3401	33056	25184	31568	35428	
3402	33088	25188	31592	35492	
3403	33008	25212	31600	35540	
3404	33056	25212	31588	35560	
3405	33040	25184	31572	35616	
3406	33072	25200	31592	35608	
3407	33040	25236	31588	35572	
3408	33056	25260	31568	35596	
3409	33088	25260	31584	35552	
3410	33008	25232	31568	35496	
3411	32992	25268	31588	35532	
3412	32944	25244	31576	35528	
3413	32960	25220	31552	35504	
3414	32960	25200	31560	35540	
3415	33040	25212	31552	35528	
3416	33008	25208	31544	35496	
3417	33120	25220	31560	35488	
3418	33120	25224	31548	35500	
3419	33104	25224	31552	35516	
3420	33040	25204	31540	35520	
3421	33024	25196	31564	35516	
3422	33088	25208	31556	35476	
3423	33104	25212	31560	35472	
3424	33072	25224	31532	35484	
3425	33040	25240	31556	35476	
3426	32976	25208	31536	35488	
3427	32928	25172	31524	35440	
3428	33008	25200	31568	35496	
3429	33008	25296	31512	35396	
3430	32992	25284	31564	35348	
3431	33024	25260	31536	35356	
3432	32848	25236	31552	35404	
3433	32640	25220	31544	35436	
3434	32496	25204	31532	35424	
3435	32400	25192	31568	35432	
3436	32256	25212	31572	35472	
3437	32272	25196	31584	35496	
3438	32208	25228	31568	35480	
3439	32048	25192	31556	35468	
3440	31760	25188	31576	35484	
3441	31488	25264	31552	35496	
3442	31232	25228	31560	35484	
3443	31152	25208	31552	35508	
3444	31056	25208	31580	35472	
3445	31024	25204	31576	35436	
3446	31008	25188	31604	35468	
3447	31152	25208	31560	35492	
3448	31280	25184	31576	35476	
3449	31472	25156	31580	35448	
3450	31616	25176	31584	35444	
3451	31808	25200	31608	35460	
3452	31968	25188	31544	35464	
3453	32080	25192	31572	35436	
3454	32160	25180	31596	35420	
3455	32320	25184	31552	35452	
3456	32496	25176	31596	35440	
3457	32832	25228	31560	35440	
3458	32928	25196	31568	35468	
3459	33136	25260	31572	35432	
3460	33296	25248	31548	35400	
3461	33440	25224	31588	35340	
3462	33600	25188	31568	35360	
3463	33632	25204	31616	35412	
3464	33776	25180	31592	35412	
3465	33744	25160	31596	35436	
3466	33600	25184	31580	35444	
3467	33584	25192	31564	35452	
3468	33536	25156	31588	35484	
3469	33424	25140	31584	35456	
3470	33408	25196	31600	35488	
3471	33424	25224	31596	35464	
3472	33392	25224	31624	35432	
3473	33328	25192	31592	35424	
3474	33440	25228	31584	35484	
3475	33680	25180	31576	35452	
3476	34096	25192	31604	35520	
3477	34272	25200	31572	35492	
3478	34000	25196	31560	35452	
3479	33392	25224	31572	35432	
3480	33504	25172	31536	35464	
3481	33904	25220	31544	35456	
3482	34112	25208	31540	35440	
3483	33728	25204	31540	35424	
3484	32672	25200	31560	35388	
3485	31776	25220	31576	35428	
3486	31824	25216	31564	35416	
3487	32112	25168	31552	35416	
3488	32048	25188	31548	35452	
3489	31664	25184	31560	35476	
3490	31408	25172	31588	35488	
3491	31952	25200	31592	35452	
3492	33168	25180	31612	35460	
3493	34592	25176	31624	35568	
3494	37296	25152	31592	35612	
3495	39888	25144	31656	35648	
3496	40848	25156	31680	35620	
3497	40512	25188	31724	35656	
3498	39536	25164	31780	35496	
3499	38256	25176	31804	35436	
3500	36928	25204	31788	35316	
3501	35664	25200	31752	35264	
3502	34640	25136	31628	35224	
3503	33776	25136	31524	35228	
3504	32880	25100	31372	35176	
3505	32208	25140	31268	35164	
3506	31728	25196	31228	35200	
3507	31264	25224	31248	35320	
3508	31168	25240	31288	35424	
3509	30992	25284	31328	35528	
3510	30960	25384	31400	35484	
3511	31008	25460	31516	35404	
3512	30960	25488	31624	35376	
3513	30896	25484	31704	35460	
3514	30896	25432	31724	35560	
3515	30784	25368	31756	35712	
3516	30832	25328	31796	35748	
3517	30832	25248	31808	35780	
3518	30768	25204	31808	35736	
3519	30784	25156	31784	35724	
3520	30784	25152	31768	35596	
3521	30832	25120	31736	35528	
3522	30896	25096	31724	35480	
3523	30976	25108	31668	35388	
3524	31072	25100	31636	35352	
3525	30992	25084	31620	35300	
3526	31040	25084	31548	35256	
3527	31024	25060	31500	35252	
3528	31024	25032	31480	35280	
3529	31024	25056	31484	35312	
3530	31088	25084	31480	35304	
3531	31024	25112	31484	35264	
3532	31040	25216	31472	35260	
3533	31056	25252	31500	35284	
3534	31120	25312	31544	35308	
3535	31104	25336	31564	35280	
3536	31056	25312	31568	35312	
3537	31072	25360	31592	35372	
3538	31104	25380	31576	35380	
3539	31024	25380	31560	35448	
3540	31056	25428	31564	35416	
3541	30960	25392	31556	35436	
3542	31008	25356	31580	35460	
3543	31104	25328	31612	35472	
3544	31136	25216	31576	35500	
3545	31184	25192	31588	35540	
3546	31152	25184	31624	35560	
3547	31088	25188	31624	35572	
3548	31008	25172	31660	35580	
3549	31008	25136	31652	35592	
3550	31024	25136	31636	35568	
3551	31040	25108	31648	35596	
3552	30992	25084	31608	35580	
3553	31008	25100	31612	35556	
3554	31088	25112	31572	35532	
3555	31136	25084	31556	35576	
3556	31136	25128	31536	35568	
3557	31216	25128	31484	35584	
3558	31232	25116	31476	35512	
3559	31328	25140	31460	35528	
3560	31408	25180	31464	35464	
3561	31504	25172	31472	35400	
3562	31584	25192	31496	35384	
3563	31584	25176	31500	35352	
3564	31600	25216	31528	35356	
3565	31600	25176	31524	35360	
3566	31744	25200	31520	35360	
3567	31824	25240	31532	35352	
3568	31968	25232	31500	35396	
3569	32000	25232	31524	35392	
3570	31920	25220	31548	35420	
3571	31920	25188	31572	35388	
3572	31856	25196	31548	35408	
3573	31728	25180	31560	35432	
3574	31696	25216	31564	35408	
3575	31584	25164	31588	35432	
3576	31488	25176	31620	35376	
3577	31440	25212	31628	35420	
3578	31536	25204	31636	35420	
3579	31424	25216	31628	35400	
3580	31424	25200	31644	35388	
3581	31408	25148	31644	35420	
3582	31504	25120	31652	35388	
3583	31536	25116	31624	35396	
3584	31632	25120	31576	35448	
3585	31696	25144	31568	35380	
3586	31856	25152	31548	35328	
3587	31984	25168	31572	35304	
3588	32032	25212	31556	35320	
3589	32096	25228	31600	35348	
3590	32192	25228	31572	35356	
3591	32224	25172	31584	35344	
3592	32272	25160	31616	35364	
3593	32320	25188	31576	35380	
3594	32368	25228	31556	35392	
3595	32416	25212	31532	35380	
3596	32576	25152	31568	35420	
3597	32672	25152	31596	35424	
3598	32672	25172	31560	35416	
3599	32720	25148	31572	35356	
3600	32736	25156	31568	35448	
3601	32768	25120	31564	35380	
3602	32800	25128	31552	35380	
3603	32832	25180	31568	35364	
3604	32832	25164	31592	35320	
3605	32912	25140	31560	35368	
3606	32896	25140	31564	35340	
3607	32928	25152	31560	35356	
3608	32928	25172	31592	35384	
3609	32944	25184	31568	35380	
3610	32976	25172	31548	35424	
3611	32944	25176	31588	35452	
3612	32960	25180	31580	35492	
3613	32960	25212	31576	35460	
3614	32944	25148	31604	35452	
3615	33024	25172	31544	35444	
3616	32912	25172	31548	35472	
3617	32992	25156	31560	35508	
3618	33056	25148	31572	35512	
3619	33008	25156	31560	35524	
3620	33088	25160	31564	35516	
3621	33104	25172	31560	35492	
3622	33168	25204	31552	35520	
3623	33200	25188	31552	35472	
3624	33136	25188	31544	35456	
3625	33184	25228	31556	35460	
3626	33248	25192	31532	35484	
3627	33216	25216	31548	35488	
3628	33184	25212	31532	35416	
3629	33184	25188	31536	35444	
3630	33232	25192	31532	35480	
3631	33152	25176	31544	35396	
3632	33120	25212	31536	35424	
3633	33104	25220	31544	35428	
3634	33152	25180	31548	35428	
3635	33136	25180	31532	35384	
3636	33200	25188	31532	35420	
3637	33216	25220	31532	35424	
3638	33232	25188	31528	35408	
3639	33184	25192	31540	35448	
3640	33120	25208	31540	35408	
3641	33184	25192	31536	35396	
3642	33152	25176	31560	35396	
3643	33056	25196	31540	35424	
3644	32992	25216	31548	35416	
3645	32944	25208	31532	35440	
3646	32928	25164	31544	35436	
3647	32928	25204	31532	35420	
3648	32912	25216	31540	35364	
3649	32912	25176	31560	35340	
3650	32880	25192	31552	35292	
3651	32832	25176	31576	35320	
3652	32768	25188	31568	35344	
3653	32640	25172	31556	35388	
3654	32400	25176	31516	35420	
3655	32320	25164	31516	35416	
3656	32224	25152	31536	35460	
3657	32160	25220	31508	35436	
3658	32144	25188	31536	35428	
3659	32000	25180	31540	35408	
3660	31728	25172	31544	35424	
3661	31488	25176	31536	35404	
3662	31280	25168	31540	35384	
3663	31088	25160	31556	35400	
3664	31008	25160	31560	35424	
3665	30992	25164	31564	35384	
3666	30944	25152	31572	35380	
3667	30928	25152	31564	35384	
3668	31040	25168	31572	35392	
3669	31200	25192	31556	35392	
3670	31392	25188	31564	35436	
3671	31696	25204	31548	35444	
3672	31824	25188	31536	35436	
3673	31984	25152	31564	35424	
3674	32128	25192	31572	35428	
3675	32320	25192	31596	35424	
3676	32496	25200	31572	35420	
3677	32720	25176	31592	35456	
3678	32976	25172	31572	35408	
3679	33040	25188	31564	35440	
3680	33152	25196	31552	35412	
3681	33232	25204	31568	35376	
3682	33312	25172	31572	35412	
3683	33360	25172	31560	35404	
3684	33424	25184	31568	35444	
3685	33488	25172	31548	35412	
3686	33456	25184	31568	35456	
3687	33408	25168	31556	35432	
3688	33376	25200	31548	35376	
3689	33296	25176	31536	35416	
3690	33168	25188	31552	35404	
3691	33152	25180	31564	35376	
3692	33104	25200	31532	35396	
3693	33056	25188	31556	35412	
3694	33104	25204	31552	35408	
3695	33264	25172	31528	35400	
3696	33744	25204	31532	35380	
3697	34112	25192	31544	35360	
3698	34032	25184	31540	35364	
3699	33424	25192	31548	35368	
3700	33264	25164	31540	35336	
3701	33648	25188	31524	35384	
3702	33680	25192	31520	35372	
3703	33296	25208	31556	35364	
3704	32192	25180	31544	35400	
3705	30768	25172	31544	35380	
3706	30416	25180	31552	35404	
3707	30560	25168	31560	35400	
3708	30880	25216	31540	35452	
3709	30640	25192	31544	35440	
3710	30176	25176	31536	35436	
3711	30432	25164	31548	35432	
3712	31936	25188	31556	35488	
3713	33520	25164	31556	35512	
3714	36000	25156	31556	35648	
3715	39232	25124	31572	35696	
3716	40720	25148	31648	35748	
3717	40912	25140	31692	35656	
3718	40224	25128	31728	35560	
3719	38912	25128	31784	35388	
3720	37632	25132	31768	35252	
3721	36384	25104	31732	35172	
3722	35168	25092	31624	35112	
3723	34192	25052	31480	35072	
3724	33456	25084	31368	35036	
3725	32656	25116	31260	34984	
3726	32016	25176	31184	35040	
3727	31520	25184	31148	35108	
3728	31280	25188	31172	35220	
3729	31152	25200	31192	35372	
3730	31168	25196	31284	35472	
3731	31168	25276	31408	35456	
3732	31120	25360	31540	35404	
3733	31088	25372	31672	35420	
3734	31088	25400	31716	35484	
3735	31072	25356	31676	35620	
3736	31056	25360	31712	35688	
3737	31072	25272	31720	35676	
3738	31024	25224	31708	35672	
3739	31104	25156	31696	35640	
3740	31168	25132	31708	35576	
3741	31168	25084	31692	35568	
3742	31264	25080	31620	35480	
3743	31296	25060	31604	35448	
3744	31328	25064	31548	35348	
3745	31360	25056	31520	35356	
3746	31408	25048	31492	35344	
3747	31392	25020	31460	35296	
3748	31440	25052	31480	35284	
3749	31392	25060	31468	35304	
3750	31488	25048	31448	35300	
3751	31504	25080	31440	35276	
3752	31456	25124	31424	35272	
3753	31424	25160	31424	35260	
3754	31424	25208	31468	35232	
3755	31440	25236	31472	35248	
3756	31312	25256	31488	35256	
3757	31296	25280	31524	35256	
3758	31344	25300	31536	35316	
3759	31360	25308	31548	35364	
3760	31312	25276	31564	35380	
3761	31328	25316	31568	35424	
3762	31264	25328	31564	35464	
3763	31248	25332	31568	35500	
3764	31232	25300	31552	35596	
3765	31232	25308	31548	35576	
3766	31264	25276	31564	35564	
3767	31344	25212	31584	35556	
3768	31248	25224	31592	35536	
3769	31312	25164	31604	35508	
3770	31280	25152	31628	35548	
3771	31216	25164	31576	35504	
3772	31200	25160	31604	35456	
3773	31264	25128	31564	35460	
3774	31280	25104	31568	35428	
3775	31296	25120	31564	35376	
3776	31392	25124	31516	35392	
3777	31424	25132	31496	35428	
3778	31376	25124	31476	35380	
3779	31392	25156	31504	35392	
3780	31456	25176	31504	35400	
3781	31536	25180	31504	35432	
3782	31664	25204	31492	35400	
3783	31728	25204	31504	35384	
3784	31824	25228	31496	35332	
3785	31744	25192	31528	35364	
3786	31808	25164	31512	35328	
3787	31712	25168	31532	35344	
3788	31792	25164	31520	35368	
3789	31744	25160	31528	35332	
3790	31776	25160	31540	35348	
3791	31808	25176	31552	35348	
3792	31760	25172	31544	35368	
3793	31680	25148	31552	35376	
3794	31616	25180	31556	35404	
3795	31504	25164	31600	35436	
3796	31424	25116	31572	35436	
3797	31408	25148	31576	35476	
3798	31312	25148	31580	35464	
3799	31312	25136	31584	35444	
3800	31264	25128	31588	35448	
3801	31312	25104	31596	35436	
3802	31360	25160	31548	35404	
3803	31392	25168	31512	35444	
3804	31392	25156	31556	35428	
3805	31472	25124	31516	35420	
3806	31632	25116	31508	35388	
3807	31808	25120	31520	35364	
3808	31856	25120	31532	35348	
3809	31968	25128	31544	35348	
3810	32032	25128	31556	35376	
3811	32128	25152	31560	35396	
3812	32144	25160	31540	35408	
3813	32224	25164	31568	35452	
3814	32272	25160	31540	35432	
3815	32400	25184	31556	35448	
3816	32496	25200	31548	35416	
3817	32496	25172	31528	35440	
3818	32512	25184	31520	35384	
3819	32528	25176	31524	35380	
3820	32576	25164	31568	35380	
3821	32688	25164	31576	35384	
3822	32672	25144	31564	35332	
3823	32736	25144	31584	35360	
3824	32768	25156	31588	35384	
3825	32832	25128	31576	35408	
3826	32832	25136	31596	35384	
3827	32864	25140	31572	35348	
3828	32816	25172	31588	35348	
3829	32832	25172	31632	35388	
3830	32832	25192	31580	35432	
3831	32912	25188	31576	35404	
3832	32848	25244	31616	35396	
3833	32848	25236	31600	35432	
3834	32848	25216	31568	35428	
3835	32864	25212	31564	35472	
3836	32896	25220	31576	35464	
3837	32864	25236	31596	35472	
3838	32912	25232	31596	35484	
3839	32960	25232	31596	35424	
3840	32960	25208	31600	35464	
3841	32976	25220	31556	35448	
3842	33024	25228	31580	35428	
3843	33072	25200	31580	35460	
3844	33040	25220	31552	35496	
3845	32960	25220	31564	35448	
3846	32976	25184	31560	35440	
3847	32912	25204	31564	35444	
3848	32912	25180	31552	35452	
3849	32896	25180	31608	35452	
3850	32880	25188	31576	35468	
3851	32880	25168	31572	35436	
3852	32848	25180	31564	35464	
3853	32960	25136	31564	35468	
3854	32960	25204	31568	35464	
3855	33040	25196	31560	35460	
3856	33008	25156	31540	35472	
3857	32992	25164	31560	35416	
3858	32992	25184	31548	35432	
3859	33024	25200	31568	35460	
3860	32944	25168	31556	35432	
3861	32928	25168	31548	35424	
3862	32912	25192	31552	35444	
3863	32912	25172	31576	35436	
3864	32976	25176	31592	35444	
3865	32912	25196	31572	35460	
3866	32912	25180	31596	35444	
3867	32880	25188	31592	35416	
3868	32880	25208	31576	35448	
3869	32864	25180	31584	35416	
3870	32864	25168	31596	35440	
3871	32800	25168	31572	35436	
3872	32736	25212	31596	35396	
3873	32768	25172	31656	35388	
3874	32768	25192	31616	35416	
3875	32720	25160	31580	35412	
3876	32656	25184	31588	35408	
3877	32512	25180	31592	35464	
3878	32384	25132	31580	35520	
3879	32272	25172	31576	35576	
3880	32144	25200	31588	35524	
3881	32048	25152	31596	35464	
3882	32016	25192	31608	35508	
3883	31968	25216	31608	35504	
3884	31808	25212	31620	35420	
3885	31648	25200	31584	35384	
3886	31456	25196	31628	35404	
3887	31264	25228	31572	35424	
3888	31152	25184	31600	35408	
3889	31072	25168	31620	35356	
3890	31056	25168	31616	35332	
3891	31136	25192	31588	35352	
3892	31248	25208	31612	35376	
3893	31408	25208	31600	35344	
3894	31616	25196	31588	35344	
3895	31808	25208	31584	35348	
3896	31840	25224	31600	35380	
3897	31984	25192	31592	35384	
3898	32032	25188	31584	35448	
3899	32176	25208	31596	35440	
3900	32368	25216	31568	35464	
3901	32720	25204	31564	35480	
3902	32992	25200	31556	35472	
3903	33136	25192	31588	35420	
3904	33232	25244	31596	35440	
3905	33360	25208	31588	35452	
3906	33440	25176	31588	35472	
3907	33408	25184	31612	35448	
3908	33424	25172	31588	35440	
3909	33424	25184	31572	35448	
3910	33472	25164	31588	35448	
3911	33536	25184	31564	35428	
3912	33440	25236	31620	35448	
3913	33360	25184	31572	35404	
3914	33296	25184	31548	35452	
3915	33200	25228	31564	35448	
3916	33136	25188	31544	35464	
3917	33120	25180	31540	35404	
3918	33168	25200	31540	35424	
3919	33312	25188	31504	35448	
3920	33680	25168	31528	35400	
3921	33936	25200	31552	35420	
3922	33680	25204	31548	35412	
3923	32912	25220	31532	35408	
3924	32336	25192	31528	35388	
3925	32512	25240	31556	35412	
3926	32656	25152	31560	35476	
3927	32592	25164	31520	35532	
3928	31968	25212	31532	35556	
3929	30864	25216	31548	35488	
3930	30528	25260	31572	35476	
3931	31120	25248	31524	35484	
3932	31440	25276	31572	35460	
3933	31520	25248	31596	35432	
3934	31472	25212	31628	35424	
3935	31872	25248	31612	35384	
3936	33312	25208	31648	35424	
3937	34800	25168	31612	35468	
3938	37216	25208	31616	35560	
3939	39728	25176	31644	35624	
3940	41296	25208	31684	35656	
3941	41504	25268	31708	35620	
3942	40784	25200	31732	35616	
3943	39712	25212	31764	35484	
3944	38384	25192	31720	35300	
3945	37104	25184	31644	35188	
3946	35824	25128	31512	35164	
3947	34896	25072	31368	35244	
3948	33936	25044	31352	35372	
3949	32992	25076	31332	35332	
3950	32272	25100	31392	35296	
3951	31792	25132	31440	35212	
3952	31344	25180	31492	35208	
3953	31104	25216	31492	35260	
3954	30944	25284	31468	35344	
3955	30912	25300	31516	35372	
3956	30864	25288	31592	35376	
3957	30896	25316	31692	35404	
3958	30848	25376	31740	35520	
3959	30832	25396	31740	35596	
3960	30816	25400	31704	35672	
3961	30768	25400	31676	35688	
3962	30816	25360	31672	35612	
3963	30848	25352	31712	35580	
3964	30896	25300	31692	35488	
3965	30912	25252	31676	35416	
3966	30992	25176	31628	35400	
3967	30992	25172	31580	35372	
3968	30976	25168	31524	35360	
3969	31008	25164	31516	35376	
3970	30944	25152	31496	35328	
3971	30960	25140	31500	35340	
3972	30992	25116	31552	35308	
3973	30976	25072	31536	35320	
3974	31008	25076	31532	35320	
3975	31024	25100	31536	35348	
3976	31056	25116	31560	35344	
3977	31024	25152	31564	35372	
3978	30992	25164	31632	35328	
3979	31072	25204	31648	35352	
3980	31056	25236	31640	35324	
3981	31024	25308	31644	35388	
3982	31040	25328	31592	35424	
3983	31040	25288	31568	35444	
3984	31024	25360	31532	35516	
3985	31008	25368	31536	35520	
3986	30976	25324	31528	35504	
3987	30960	25312	31536	35508	
3988	31040	25292	31584	35500	
3989	31120	25248	31572	35484	
3990	31072	25184	31572	35472	
3991	31104	25180	31620	35528	
3992	31088	25176	31652	35556	
3993	31088	25184	31620	35520	
3994	31040	25132	31628	35564	
3995	30992	25136	31620	35584	
3996	31072	25152	31596	35524	
3997	30992	25144	31596	35548	
3998	31008	25148	31588	35524	
3999	30960	25152	31568	35492	
4000	30976	25160	31572	35448	
4001	30896	25172	31548	35460	
4002	30944	25156	31552	35464	
4003	31024	25164	31548	35440	
4004	31072	25200	31516	35436	
4005	31152	25240	31544	35420	
4006	31248	25204	31528	35416	
4007	31312	25252	31532	35412	
4008	31280	25256	31536	35408	
4009	31168	25320	31548	35412	
4010	31232	25276	31560	35408	
4011	31184	25292	31544	35440	
4012	31312	25288	31560	35472	
4013	31280	25256	31568	35428	
4014	31312	25248	31564	35432	
4015	31312	25256	31564	35460	
