# OpenSignals Text File Format. Version 1
# {"8C:F6:81:6C:CD:1C": {"position": 0, "device": "cardiobanplux", "device name": "8C:F6:81:6C:CD:1C", "device connection": "BTH8C:F6:81:6C:CD:1C", "sampling rate": 400, "resolution": [16, 16, 16, 16], "firmware version": 1027, "comments": "A banda foi colocada no peito do lado esquerdo, com as letras viradas para cima e para o lado esquerdo.", "keywords": "", "mode": 0, "sync interval": 2, "date": "2024-1-15", "time": "16:12:47.871", "channels": [1, 2, 3, 4], "sensor": ["ECG", "gACC", "gACC", "gACC"], "label": ["ECG", "ACC_X", "ACC_Y", "ACC_Z"], "column": ["nSeq", "ECG", "ACC_X", "ACC_Y", "ACC_Z"], "special": [{}, {}, {}, {}], "digital IO": []}}
# EndOfHeader
0	28896	25192	31512	35360	
1	32960	25196	31540	35364	
2	32992	25180	31508	35384	
3	32960	25164	31520	35428	
4	32992	25180	31544	35444	
5	32992	25192	31524	35408	
6	33024	25212	31512	35476	
7	33088	25188	31508	35500	
8	33008	25172	31488	35480	
9	33024	25160	31496	35480	
10	32992	25176	31480	35448	
11	33104	25180	31448	35468	
12	33056	25184	31436	35420	
13	33056	25216	31444	35384	
14	32992	25256	31436	35372	
15	32976	25272	31444	35372	
16	33040	25220	31444	35376	
17	33136	25248	31476	35360	
18	33104	25232	31512	35364	
19	33024	25188	31496	35408	
20	33008	25196	31528	35372	
21	33088	25192	31520	35424	
22	33104	25208	31520	35380	
23	33104	25212	31536	35404	
24	33008	25232	31516	35376	
25	33040	25208	31508	35408	
26	33024	25244	31516	35412	
27	33040	25228	31496	35416	
28	33072	25236	31520	35420	
29	33120	25224	31504	35408	
30	33072	25220	31512	35428	
31	33088	25220	31492	35424	
32	33120	25168	31504	35456	
33	33120	25184	31500	35456	
34	33152	25208	31520	35456	
35	33136	25208	31528	35440	
36	33088	25212	31540	35484	
37	33088	25280	31524	35488	
38	33088	25268	31536	35460	
39	33200	25264	31532	35528	
40	33280	25268	31544	35524	
41	33280	25264	31520	35528	
42	33248	25328	31544	35496	
43	33264	25228	31544	35476	
44	33328	25256	31532	35496	
45	33232	25212	31528	35488	
46	33152	25200	31528	35480	
47	33184	25172	31528	35492	
48	33168	25168	31540	35448	
49	33120	25196	31524	35484	
50	33104	25184	31532	35448	
51	33120	25208	31532	35456	
52	33136	25180	31536	35480	
53	33072	25200	31520	35452	
54	33088	25176	31508	35460	
55	33072	25196	31496	35444	
56	33072	25164	31496	35472	
57	33072	25160	31524	35416	
58	33056	25164	31504	35432	
59	33024	25168	31488	35436	
60	33104	25152	31504	35472	
61	33152	25172	31532	35460	
62	33184	25176	31556	35468	
63	33024	25204	31544	35448	
64	32976	25160	31508	35460	
65	32864	25180	31512	35464	
66	32704	25200	31552	35476	
67	32544	25208	31528	35436	
68	32320	25188	31548	35488	
69	32128	25232	31528	35460	
70	32064	25228	31532	35472	
71	32080	25248	31540	35464	
72	32096	25196	31548	35488	
73	32080	25232	31536	35480	
74	31936	25228	31548	35496	
75	31776	25200	31556	35468	
76	31712	25212	31548	35476	
77	31664	25224	31548	35468	
78	31728	25216	31564	35464	
79	31856	25164	31560	35484	
80	32016	25188	31556	35456	
81	32112	25240	31568	35468	
82	32256	25204	31536	35412	
83	32352	25204	31548	35464	
84	32480	25228	31568	35460	
85	32624	25212	31572	35468	
86	32736	25208	31568	35500	
87	32768	25212	31548	35488	
88	32784	25224	31580	35456	
89	32896	25260	31560	35464	
90	33056	25244	31560	35484	
91	33104	25260	31548	35548	
92	33056	25244	31572	35532	
93	33136	25236	31576	35512	
94	33120	25196	31564	35496	
95	33008	25228	31524	35476	
96	32992	25232	31560	35504	
97	32976	25236	31548	35484	
98	32960	25236	31536	35524	
99	32992	25204	31540	35508	
100	32896	25224	31540	35496	
101	32896	25232	31532	35532	
102	32896	25232	31532	35520	
103	32848	25228	31508	35464	
104	33040	25216	31548	35476	
105	33280	25224	31516	35500	
106	33520	25232	31500	35484	
107	33376	25260	31512	35504	
108	32976	25212	31532	35492	
109	32992	25224	31524	35480	
110	33744	25268	31556	35496	
111	34496	25236	31560	35500	
112	34960	25192	31524	35524	
113	34784	25232	31520	35564	
114	33504	25224	31520	35544	
115	32960	25228	31524	35540	
116	33152	25264	31540	35572	
117	33152	25268	31548	35576	
118	32688	25232	31564	35560	
119	32272	25264	31584	35588	
120	32368	25280	31540	35576	
121	33184	25276	31576	35592	
122	34128	25284	31624	35628	
123	35376	25260	31632	35628	
124	37728	25252	31688	35608	
125	39488	25300	31704	35520	
126	39696	25276	31744	35520	
127	38976	25220	31688	35496	
128	37744	25144	31596	35616	
129	36448	25152	31508	35612	
130	35264	25144	31404	35516	
131	34128	25156	31340	35452	
132	33280	25168	31296	35296	
133	32592	25188	31352	35184	
134	31888	25200	31356	35104	
135	31328	25196	31420	35124	
136	30768	25196	31424	35224	
137	30480	25240	31400	35348	
138	30272	25268	31400	35496	
139	30144	25352	31456	35548	
140	30128	25412	31656	35560	
141	30080	25416	31736	35588	
142	30128	25372	31748	35608	
143	30128	25384	31732	35700	
144	30192	25352	31720	35740	
145	30288	25320	31688	35700	
146	30320	25252	31696	35700	
147	30272	25264	31712	35652	
148	30320	25204	31700	35548	
149	30320	25152	31684	35520	
150	30336	25128	31604	35480	
151	30384	25128	31532	35468	
152	30512	25104	31508	35432	
153	30560	25068	31460	35432	
154	30544	25080	31452	35412	
155	30688	25080	31456	35380	
156	30688	25096	31488	35352	
157	30704	25076	31512	35332	
158	30720	25080	31552	35316	
159	30768	25112	31536	35292	
160	30768	25152	31508	35336	
161	30864	25164	31500	35296	
162	30832	25192	31504	35296	
163	30800	25272	31544	35252	
164	30880	25268	31520	35256	
165	30848	25300	31528	35284	
166	30928	25300	31536	35308	
167	30960	25332	31544	35332	
168	30944	25356	31524	35380	
169	31056	25372	31524	35420	
170	31104	25344	31516	35432	
171	31072	25304	31528	35464	
172	30976	25260	31548	35524	
173	30976	25216	31556	35516	
174	30960	25180	31536	35508	
175	30912	25204	31560	35484	
176	30960	25188	31592	35492	
177	31024	25216	31616	35528	
178	30960	25244	31620	35532	
179	30912	25248	31612	35540	
180	30848	25240	31612	35548	
181	30896	25216	31592	35548	
182	30864	25248	31572	35572	
183	30896	25216	31576	35556	
184	30864	25188	31568	35560	
185	30944	25236	31512	35512	
186	30912	25192	31536	35504	
187	30976	25192	31548	35528	
188	30992	25200	31548	35460	
189	31008	25164	31528	35460	
190	31008	25188	31520	35480	
191	31072	25184	31532	35420	
192	31152	25204	31500	35428	
193	31248	25196	31508	35416	
194	31360	25216	31516	35420	
195	31408	25216	31504	35396	
196	31536	25220	31500	35380	
197	31552	25224	31516	35428	
198	31648	25188	31532	35444	
199	31744	25184	31508	35440	
200	31792	25212	31528	35452	
201	31888	25224	31528	35460	
202	32080	25252	31548	35452	
203	32144	25260	31560	35508	
204	32160	25232	31592	35520	
205	32160	25252	31564	35540	
206	32208	25240	31560	35556	
207	32240	25272	31568	35520	
208	32256	25236	31584	35516	
209	32176	25236	31620	35528	
210	32160	25212	31580	35520	
211	32096	25160	31568	35516	
212	32032	25196	31596	35536	
213	31936	25168	31568	35516	
214	31984	25180	31552	35484	
215	31920	25168	31548	35484	
216	31904	25172	31564	35520	
217	31920	25180	31540	35500	
218	31984	25212	31532	35520	
219	32080	25196	31532	35500	
220	32208	25152	31552	35524	
221	32288	25196	31556	35520	
222	32352	25184	31540	35488	
223	32448	25168	31544	35496	
224	32496	25172	31532	35468	
225	32640	25172	31524	35424	
226	32704	25148	31552	35372	
227	32800	25188	31560	35416	
228	32896	25188	31584	35480	
229	32896	25224	31592	35484	
230	32896	25172	31572	35528	
231	33008	25148	31584	35536	
232	33056	25188	31536	35532	
233	33024	25184	31580	35540	
234	32976	25164	31552	35552	
235	33104	25172	31520	35544	
236	33184	25192	31556	35540	
237	33152	25204	31524	35484	
238	33168	25176	31508	35476	
239	33136	25208	31520	35428	
240	33168	25184	31524	35432	
241	33120	25224	31512	35420	
242	33120	25208	31532	35408	
243	33088	25256	31560	35432	
244	33104	25244	31556	35460	
245	33168	25224	31564	35464	
246	33136	25216	31552	35488	
247	33104	25264	31556	35468	
248	33104	25252	31556	35512	
249	33104	25208	31572	35456	
250	33008	25296	31572	35540	
251	33008	25264	31556	35452	
252	33040	25240	31532	35440	
253	33056	25220	31556	35468	
254	33104	25228	31556	35448	
255	33072	25232	31548	35432	
256	33120	25224	31536	35448	
257	33136	25260	31524	35452	
258	33152	25224	31532	35476	
259	33200	25216	31516	35420	
260	33120	25244	31544	35480	
261	33168	25232	31524	35448	
262	33200	25228	31536	35444	
263	33200	25260	31500	35468	
264	33232	25220	31536	35452	
265	33248	25268	31544	35488	
266	33296	25236	31532	35480	
267	33280	25220	31552	35460	
268	33248	25256	31564	35492	
269	33248	25240	31564	35472	
270	33248	25212	31540	35496	
271	33184	25244	31552	35492	
272	33184	25192	31544	35508	
273	33152	25224	31540	35492	
274	33152	25184	31536	35492	
275	33104	25176	31544	35496	
276	33152	25208	31548	35516	
277	33088	25208	31512	35504	
278	33072	25196	31532	35508	
279	32992	25176	31552	35476	
280	33056	25176	31544	35464	
281	33072	25216	31540	35488	
282	33104	25180	31540	35480	
283	33168	25168	31536	35456	
284	33088	25192	31528	35460	
285	33104	25176	31520	35472	
286	33184	25184	31548	35488	
287	33136	25144	31556	35484	
288	33056	25172	31540	35460	
289	33024	25200	31524	35464	
290	32912	25188	31528	35488	
291	32848	25172	31544	35460	
292	32688	25212	31548	35480	
293	32496	25196	31544	35464	
294	32368	25216	31528	35456	
295	32240	25240	31560	35436	
296	32256	25180	31544	35456	
297	32160	25208	31540	35480	
298	32192	25208	31556	35448	
299	32096	25212	31548	35416	
300	32048	25192	31528	35460	
301	31952	25200	31528	35468	
302	31920	25204	31544	35432	
303	31824	25196	31528	35464	
304	31744	25212	31556	35472	
305	31792	25204	31536	35504	
306	31952	25152	31580	35444	
307	32080	25200	31584	35440	
308	32208	25192	31540	35452	
309	32400	25180	31572	35496	
310	32544	25188	31560	35496	
311	32592	25216	31552	35448	
312	32704	25204	31556	35456	
313	32624	25200	31564	35496	
314	32688	25196	31584	35472	
315	32704	25216	31548	35460	
316	32784	25216	31552	35484	
317	32880	25244	31556	35460	
318	32944	25212	31548	35464	
319	33040	25224	31564	35472	
320	33056	25220	31556	35452	
321	33008	25220	31548	35464	
322	33056	25236	31552	35476	
323	32976	25228	31552	35472	
324	32976	25208	31548	35440	
325	32912	25268	31560	35488	
326	32800	25232	31544	35460	
327	32800	25196	31576	35492	
328	32720	25228	31560	35472	
329	32656	25236	31536	35444	
330	32736	25216	31560	35456	
331	32736	25208	31552	35444	
332	32928	25232	31544	35432	
333	33248	25216	31560	35444	
334	33408	25216	31536	35416	
335	33232	25260	31536	35428	
336	32784	25204	31524	35452	
337	32976	25204	31536	35444	
338	33632	25228	31520	35432	
339	34176	25216	31516	35464	
340	34320	25212	31540	35440	
341	33568	25208	31516	35472	
342	32208	25208	31532	35460	
343	31888	25188	31544	35520	
344	31984	25224	31504	35520	
345	31904	25216	31512	35504	
346	31536	25212	31544	35484	
347	31264	25212	31564	35552	
348	31680	25224	31528	35488	
349	32928	25256	31532	35572	
350	34080	25212	31564	35592	
351	35968	25232	31588	35620	
352	38416	25208	31644	35636	
353	39792	25208	31688	35632	
354	39776	25196	31720	35536	
355	38800	25160	31696	35484	
356	37648	25132	31580	35500	
357	36464	25116	31480	35476	
358	35216	25116	31324	35468	
359	34272	25124	31248	35404	
360	33472	25148	31268	35268	
361	32720	25164	31320	35172	
362	32064	25192	31416	35128	
363	31424	25204	31424	35168	
364	31024	25244	31416	35308	
365	30656	25300	31416	35432	
366	30496	25356	31444	35516	
367	30416	25348	31532	35532	
368	30368	25372	31656	35540	
369	30368	25400	31712	35532	
370	30384	25396	31744	35548	
371	30400	25376	31720	35652	
372	30384	25352	31660	35752	
373	30432	25328	31648	35752	
374	30432	25308	31660	35700	
375	30512	25232	31676	35628	
376	30544	25224	31656	35568	
377	30608	25184	31616	35500	
378	30640	25152	31592	35452	
379	30688	25120	31536	35464	
380	30736	25096	31488	35476	
381	30800	25068	31472	35472	
382	30800	25084	31444	35400	
383	30800	25080	31432	35408	
384	30832	25104	31496	35364	
385	30816	25084	31512	35352	
386	30832	25108	31512	35304	
387	30880	25132	31516	35308	
388	30896	25176	31532	35288	
389	30832	25244	31504	35300	
390	30880	25236	31512	35292	
391	30880	25332	31524	35292	
392	30896	25364	31504	35308	
393	30976	25372	31564	35300	
394	30944	25364	31548	35340	
395	31024	25360	31540	35376	
396	31024	25364	31536	35380	
397	31008	25360	31540	35424	
398	30976	25324	31520	35452	
399	31040	25328	31532	35468	
400	31040	25304	31548	35512	
401	31056	25324	31540	35560	
402	31056	25236	31528	35556	
403	31024	25288	31552	35612	
404	31008	25232	31572	35592	
405	31104	25208	31576	35580	
406	31056	25240	31600	35572	
407	31120	25196	31612	35568	
408	31088	25192	31608	35528	
409	31072	25228	31628	35556	
410	31136	25212	31564	35548	
411	31104	25188	31568	35516	
412	31104	25208	31564	35496	
413	31072	25180	31544	35520	
414	31104	25168	31536	35528	
415	31184	25156	31520	35504	
416	31200	25184	31524	35476	
417	31264	25192	31524	35424	
418	31296	25176	31492	35412	
419	31312	25180	31516	35392	
420	31408	25216	31484	35396	
421	31520	25200	31488	35416	
422	31632	25248	31524	35400	
423	31680	25240	31500	35380	
424	31824	25208	31512	35432	
425	31888	25260	31512	35428	
426	32032	25232	31496	35424	
427	32112	25248	31492	35436	
428	32192	25200	31512	35480	
429	32256	25244	31528	35480	
430	32352	25260	31556	35488	
431	32480	25240	31548	35520	
432	32432	25248	31528	35528	
433	32496	25244	31544	35528	
434	32400	25248	31552	35568	
435	32336	25284	31548	35568	
436	32320	25248	31568	35556	
437	32336	25220	31556	35560	
438	32256	25204	31548	35524	
439	32080	25216	31536	35576	
440	31936	25184	31516	35572	
441	31936	25192	31512	35572	
442	31872	25176	31508	35536	
443	31760	25192	31512	35580	
444	31792	25168	31504	35568	
445	31808	25164	31512	35524	
446	31824	25200	31520	35516	
447	31840	25176	31500	35524	
448	31840	25220	31524	35512	
449	31840	25204	31508	35468	
450	32016	25212	31520	35440	
451	32128	25196	31516	35376	
452	32176	25216	31508	35360	
453	32240	25220	31544	35384	
454	32352	25252	31560	35448	
455	32464	25200	31580	35456	
456	32464	25212	31588	35496	
457	32544	25192	31544	35540	
458	32608	25240	31544	35552	
459	32560	25212	31532	35604	
460	32528	25248	31536	35576	
461	32624	25224	31532	35568	
462	32640	25224	31528	35480	
463	32624	25216	31532	35500	
464	32576	25212	31544	35468	
465	32640	25216	31540	35468	
466	32736	25216	31556	35420	
467	32736	25200	31532	35404	
468	32784	25216	31528	35408	
469	32768	25236	31548	35384	
470	32752	25244	31532	35388	
471	32720	25300	31564	35396	
472	32768	25244	31548	35416	
473	32816	25204	31532	35448	
474	32848	25280	31560	35428	
475	32880	25244	31564	35476	
476	32800	25268	31564	35460	
477	32832	25236	31576	35488	
478	32800	25220	31592	35484	
479	32848	25228	31584	35512	
480	32896	25212	31572	35508	
481	32848	25212	31612	35512	
482	32848	25200	31572	35508	
483	32880	25172	31572	35476	
484	32896	25200	31560	35488	
485	32944	25196	31572	35484	
486	32896	25196	31564	35512	
487	32880	25192	31576	35496	
488	32880	25204	31560	35484	
489	32912	25188	31548	35496	
490	32992	25220	31600	35484	
491	32976	25216	31556	35508	
492	32976	25204	31564	35508	
493	32976	25248	31536	35488	
494	32912	25232	31552	35500	
495	32912	25236	31524	35484	
496	32944	25176	31540	35492	
497	32960	25172	31544	35488	
498	32928	25196	31548	35484	
499	32960	25252	31556	35488	
500	32944	25212	31544	35468	
501	32912	25204	31568	35480	
502	32928	25224	31552	35452	
503	32944	25244	31504	35480	
504	32960	25212	31552	35460	
505	32960	25224	31520	35464	
506	32880	25220	31544	35448	
507	32864	25244	31568	35460	
508	32928	25232	31544	35476	
509	32944	25256	31520	35460	
510	32992	25212	31544	35480	
511	32928	25224	31536	35476	
512	32928	25204	31548	35488	
513	32864	25208	31548	35464	
514	32928	25224	31524	35464	
515	32880	25192	31528	35464	
516	32896	25252	31540	35452	
517	32864	25204	31560	35444	
518	32864	25236	31552	35452	
519	32800	25200	31524	35448	
520	32864	25192	31532	35440	
521	32816	25196	31524	35428	
522	32816	25208	31544	35440	
523	32784	25196	31536	35468	
524	32688	25184	31552	35460	
525	32576	25192	31540	35476	
526	32384	25176	31568	35460	
527	32240	25184	31560	35464	
528	32096	25192	31572	35448	
529	31968	25180	31544	35468	
530	31872	25172	31572	35504	
531	31872	25164	31556	35500	
532	31904	25196	31556	35508	
533	31856	25184	31572	35492	
534	31728	25168	31552	35464	
535	31680	25200	31564	35492	
536	31616	25160	31564	35480	
537	31520	25184	31576	35472	
538	31472	25180	31528	35472	
539	31552	25160	31540	35496	
540	31744	25176	31564	35500	
541	31952	25192	31560	35500	
542	32048	25188	31536	35520	
543	32288	25192	31532	35516	
544	32416	25180	31568	35524	
545	32544	25192	31540	35500	
546	32576	25212	31576	35484	
547	32608	25216	31556	35508	
548	32704	25204	31560	35516	
549	32752	25192	31568	35508	
550	32832	25224	31532	35528	
551	32896	25192	31540	35496	
552	32976	25184	31548	35464	
553	32976	25248	31540	35508	
554	32992	25240	31548	35496	
555	33024	25220	31548	35516	
556	32960	25200	31564	35484	
557	32896	25208	31564	35500	
558	32832	25252	31560	35508	
559	32848	25232	31556	35496	
560	32880	25204	31572	35500	
561	32832	25228	31592	35528	
562	32736	25204	31600	35520	
563	32672	25240	31588	35532	
564	32656	25208	31556	35480	
565	32752	25216	31548	35496	
566	33024	25216	31536	35464	
567	33392	25248	31532	35444	
568	33376	25268	31536	35460	
569	32976	25208	31556	35456	
570	32736	25232	31528	35472	
571	33184	25220	31544	35476	
572	33664	25172	31524	35476	
573	34016	25208	31524	35480	
574	33808	25192	31540	35476	
575	32640	25200	31544	35512	
576	31792	25180	31540	35552	
577	31808	25148	31556	35524	
578	31952	25188	31588	35532	
579	31744	25176	31596	35528	
580	31456	25184	31584	35528	
581	31424	25216	31580	35556	
582	32176	25192	31608	35568	
583	33520	25192	31624	35596	
584	34720	25196	31644	35620	
585	36976	25196	31716	35636	
586	39056	25168	31760	35620	
587	39824	25152	31796	35576	
588	39456	25176	31752	35472	
589	38656	25160	31696	35480	
590	37488	25096	31564	35524	
591	36192	25068	31444	35512	
592	34960	25088	31360	35476	
593	34000	25104	31332	35356	
594	33248	25160	31344	35272	
595	32512	25180	31388	35204	
596	31920	25176	31452	35180	
597	31504	25204	31468	35216	
598	31136	25196	31468	35292	
599	30848	25252	31468	35392	
600	30800	25280	31516	35496	
601	30672	25340	31556	35508	
602	30640	25372	31680	35480	
603	30656	25360	31716	35512	
604	30800	25336	31740	35552	
605	30784	25380	31696	35620	
606	30800	25356	31660	35664	
607	30864	25344	31672	35744	
608	30880	25308	31696	35672	
609	30928	25248	31704	35612	
610	30944	25208	31688	35548	
611	30976	25164	31680	35516	
612	31088	25176	31628	35520	
613	31120	25128	31544	35500	
614	31120	25136	31500	35476	
615	31120	25112	31492	35484	
616	31168	25148	31504	35468	
617	31120	25108	31504	35400	
618	31168	25092	31532	35356	
619	31216	25128	31512	35340	
620	31216	25180	31524	35336	
621	31232	25132	31520	35336	
622	31248	25188	31556	35324	
623	31184	25284	31548	35328	
624	31232	25268	31560	35324	
625	31200	25304	31568	35368	
626	31216	25340	31576	35324	
627	31200	25340	31592	35368	
628	31216	25356	31616	35364	
629	31136	25360	31580	35404	
630	31168	25352	31576	35432	
631	31152	25380	31580	35480	
632	31152	25352	31584	35500	
633	31232	25348	31580	35532	
634	31232	25320	31576	35532	
635	31248	25324	31588	35584	
636	31280	25260	31632	35596	
637	31232	25244	31644	35588	
638	31184	25244	31672	35628	
639	31264	25240	31680	35616	
640	31296	25208	31668	35644	
641	31232	25196	31640	35668	
642	31232	25192	31608	35632	
643	31264	25180	31612	35620	
644	31344	25180	31596	35604	
645	31360	25132	31564	35560	
646	31232	25156	31572	35536	
647	31296	25136	31576	35488	
648	31232	25152	31540	35464	
649	31312	25160	31508	35464	
650	31360	25188	31480	35456	
651	31440	25160	31496	35412	
652	31520	25160	31480	35412	
653	31472	25200	31488	35436	
654	31568	25204	31492	35412	
655	31600	25224	31492	35420	
656	31744	25196	31484	35472	
657	31824	25272	31492	35432	
658	31952	25248	31500	35432	
659	32064	25232	31528	35472	
660	32080	25252	31508	35468	
661	32144	25260	31560	35504	
662	32160	25256	31532	35548	
663	32176	25252	31564	35524	
664	32320	25256	31584	35548	
665	32272	25272	31604	35508	
666	32256	25224	31576	35568	
667	32336	25276	31588	35584	
668	32304	25256	31612	35588	
669	32256	25248	31596	35608	
670	32256	25232	31588	35580	
671	32208	25216	31588	35540	
672	32096	25220	31580	35576	
673	32016	25244	31572	35584	
674	31856	25192	31596	35544	
675	31728	25204	31564	35540	
676	31680	25188	31548	35556	
677	31664	25148	31560	35516	
678	31648	25188	31584	35492	
679	31680	25164	31576	35460	
680	31696	25184	31592	35476	
681	31840	25176	31584	35424	
682	31904	25180	31556	35376	
683	31968	25212	31544	35408	
684	32080	25148	31544	35384	
685	32192	25172	31540	35388	
686	32208	25172	31576	35392	
687	32240	25160	31592	35412	
688	32240	25176	31632	35460	
689	32288	25216	31608	35472	
690	32368	25164	31600	35512	
691	32464	25172	31596	35540	
692	32464	25156	31588	35532	
693	32480	25196	31600	35516	
694	32544	25140	31616	35528	
695	32624	25212	31552	35464	
696	32640	25152	31572	35444	
697	32768	25168	31580	35460	
698	32688	25156	31576	35428	
699	32720	25152	31580	35424	
700	32704	25180	31560	35424	
701	32768	25148	31628	35412	
702	32720	25160	31552	35376	
703	32768	25168	31568	35364	
704	32752	25160	31576	35388	
705	32768	25180	31568	35380	
706	32800	25232	31568	35424	
707	32736	25192	31588	35404	
708	32768	25216	31596	35416	
709	32832	25216	31596	35476	
710	32784	25188	31636	35508	
711	32752	25208	31612	35524	
712	32784	25228	31632	35520	
713	32960	25160	31652	35524	
714	32896	25168	31664	35536	
715	32912	25176	31640	35568	
716	32912	25188	31644	35528	
717	32912	25168	31640	35552	
718	32960	25188	31652	35548	
719	32992	25216	31624	35544	
720	32976	25200	31592	35540	
721	32976	25196	31588	35568	
722	32992	25196	31624	35560	
723	33040	25200	31600	35560	
724	33008	25216	31600	35576	
725	33024	25252	31640	35536	
726	32992	25204	31588	35560	
727	33072	25200	31576	35564	
728	33008	25216	31580	35560	
729	33024	25192	31584	35528	
730	32896	25212	31580	35512	
731	32912	25256	31580	35496	
732	32912	25188	31592	35520	
733	32896	25228	31592	35504	
734	32976	25252	31564	35464	
735	32944	25248	31568	35504	
736	32928	25200	31572	35504	
737	32928	25228	31552	35484	
738	32880	25256	31600	35524	
739	32944	25252	31600	35508	
740	32928	25216	31572	35500	
741	32960	25252	31600	35528	
742	32976	25236	31580	35508	
743	32944	25200	31600	35556	
744	32992	25240	31604	35536	
745	32944	25276	31592	35528	
746	32880	25240	31612	35532	
747	32848	25252	31588	35528	
748	32800	25236	31600	35540	
749	32720	25240	31592	35496	
750	32720	25244	31596	35524	
751	32720	25200	31584	35528	
752	32704	25252	31620	35528	
753	32672	25208	31580	35552	
754	32736	25220	31592	35496	
755	32736	25216	31588	35528	
756	32768	25228	31632	35488	
757	32752	25300	31604	35524	
758	32576	25220	31608	35492	
759	32544	25212	31608	35492	
760	32448	25216	31584	35480	
761	32272	25236	31600	35516	
762	32144	25176	31628	35508	
763	32016	25220	31644	35488	
764	31984	25220	31620	35492	
765	31952	25232	31612	35480	
766	31936	25196	31628	35520	
767	31840	25224	31580	35540	
768	31760	25196	31624	35532	
769	31728	25208	31576	35532	
770	31600	25220	31624	35484	
771	31568	25216	31616	35536	
772	31584	25220	31608	35560	
773	31776	25196	31620	35564	
774	31920	25252	31644	35556	
775	31936	25228	31624	35536	
776	32144	25212	31592	35552	
777	32288	25244	31616	35536	
778	32432	25216	31608	35540	
779	32544	25216	31604	35560	
780	32560	25248	31588	35584	
781	32624	25248	31620	35528	
782	32688	25240	31600	35580	
783	32720	25276	31592	35600	
784	32816	25272	31616	35568	
785	32800	25220	31624	35568	
786	32864	25256	31620	35576	
787	32944	25304	31584	35548	
788	32928	25280	31608	35592	
789	32976	25240	31576	35576	
790	32912	25252	31624	35584	
791	32912	25288	31568	35564	
792	32944	25232	31600	35584	
793	32928	25228	31604	35580	
794	32848	25228	31640	35544	
795	32784	25228	31608	35580	
796	32768	25248	31620	35536	
797	32688	25248	31572	35528	
798	32656	25256	31596	35488	
799	32816	25248	31608	35532	
800	33072	25224	31592	35476	
801	33296	25196	31584	35488	
802	33056	25248	31592	35468	
803	32400	25228	31564	35472	
804	32080	25224	31588	35504	
805	32416	25240	31592	35460	
806	32848	25244	31592	35496	
807	33056	25272	31588	35480	
808	32720	25244	31588	35516	
809	31680	25232	31616	35536	
810	31328	25248	31600	35520	
811	31792	25204	31604	35540	
812	31872	25240	31624	35560	
813	31744	25228	31632	35580	
814	31584	25220	31668	35580	
815	31936	25212	31652	35608	
816	33120	25252	31672	35596	
817	34240	25216	31656	35600	
818	35968	25272	31704	35644	
819	38288	25296	31764	35668	
820	39680	25272	31760	35628	
821	39984	25260	31772	35600	
822	39456	25256	31732	35564	
823	38544	25164	31628	35552	
824	37424	25144	31528	35568	
825	36224	25108	31452	35540	
826	35136	25124	31400	35520	
827	34176	25128	31372	35448	
828	33456	25164	31412	35356	
829	32656	25192	31488	35296	
830	32016	25216	31544	35248	
831	31488	25308	31568	35256	
832	31168	25236	31580	35332	
833	30880	25328	31572	35404	
834	30688	25280	31568	35488	
835	30592	25316	31636	35508	
836	30528	25320	31700	35588	
837	30544	25348	31752	35596	
838	30576	25388	31740	35672	
839	30576	25408	31712	35736	
840	30496	25444	31708	35776	
841	30528	25412	31736	35720	
842	30640	25368	31732	35660	
843	30624	25308	31720	35548	
844	30656	25256	31724	35552	
845	30704	25196	31656	35556	
846	30736	25204	31592	35532	
847	30832	25196	31564	35520	
848	30832	25116	31500	35460	
849	30960	25108	31512	35428	
850	30976	25132	31540	35416	
851	30944	25136	31560	35388	
852	31024	25140	31556	35384	
853	31056	25140	31576	35412	
854	31008	25156	31584	35388	
855	31008	25232	31596	35424	
856	31072	25232	31668	35432	
857	30976	25280	31612	35468	
858	31040	25304	31608	35476	
859	31056	25312	31636	35476	
860	30992	25308	31612	35484	
861	31040	25328	31552	35492	
862	31008	25336	31556	35496	
863	30992	25312	31552	35496	
864	31040	25280	31540	35532	
865	31088	25252	31556	35548	
866	31056	25256	31576	35540	
867	31088	25216	31600	35540	
868	31136	25192	31584	35508	
869	31152	25172	31588	35548	
870	31184	25204	31620	35568	
871	31200	25196	31632	35580	
872	31200	25184	31656	35612	
873	31232	25196	31676	35600	
874	31232	25180	31668	35632	
875	31216	25168	31676	35640	
876	31216	25196	31652	35620	
877	31136	25180	31660	35600	
878	31200	25180	31624	35588	
879	31168	25176	31620	35544	
880	31168	25188	31592	35524	
881	31184	25192	31596	35532	
882	31136	25200	31600	35508	
883	31120	25224	31620	35456	
884	31152	25228	31596	35476	
885	31232	25264	31588	35492	
886	31328	25248	31584	35484	
887	31408	25272	31556	35460	
888	31488	25256	31568	35484	
889	31584	25292	31592	35468	
890	31616	25272	31568	35476	
891	31760	25280	31612	35436	
892	31888	25268	31568	35492	
893	31936	25284	31616	35484	
894	32048	25272	31632	35544	
895	32096	25288	31620	35564	
896	32128	25260	31656	35544	
897	32256	25252	31656	35592	
898	32224	25252	31656	35612	
899	32336	25212	31632	35620	
900	32384	25248	31696	35632	
901	32336	25268	31640	35620	
902	32336	25228	31656	35632	
903	32336	25240	31652	35620	
904	32256	25236	31640	35620	
905	32144	25212	31644	35612	
906	32096	25196	31644	35648	
907	32016	25184	31624	35612	
908	31808	25192	31608	35636	
909	31728	25176	31584	35596	
910	31808	25188	31632	35612	
911	31776	25188	31648	35616	
912	31728	25172	31616	35576	
913	31728	25180	31652	35580	
914	31664	25160	31648	35584	
915	31680	25172	31640	35596	
916	31792	25152	31640	35564	
917	31824	25172	31628	35524	
918	31904	25164	31648	35532	
919	32112	25228	31684	35552	
920	32192	25228	31668	35544	
921	32080	25212	31688	35592	
922	32208	25228	31708	35608	
923	32256	25200	31688	35624	
924	32320	25184	31680	35648	
925	32320	25224	31672	35636	
926	32368	25248	31656	35616	
927	32368	25236	31688	35664	
928	32432	25224	31676	35616	
929	32512	25248	31632	35580	
930	32576	25256	31620	35540	
931	32656	25220	31616	35512	
932	32640	25256	31660	35504	
933	32592	25224	31632	35492	
934	32608	25248	31644	35500	
935	32672	25236	31628	35496	
936	32704	25216	31636	35524	
937	32736	25248	31616	35528	
938	32784	25252	31616	35504	
939	32736	25264	31608	35496	
940	32784	25320	31600	35508	
941	32736	25284	31604	35540	
942	32784	25328	31660	35548	
943	32848	25312	31632	35576	
944	32800	25320	31660	35580	
945	32720	25316	31644	35620	
946	32720	25284	31668	35612	
947	32832	25308	31688	35624	
948	32912	25284	31668	35620	
949	33008	25284	31672	35612	
950	33056	25328	31684	35636	
951	32992	25308	31672	35644	
952	33024	25316	31680	35608	
953	33008	25292	31660	35616	
954	33008	25304	31672	35620	
955	33040	25284	31672	35644	
956	33088	25284	31644	35616	
957	33120	25268	31652	35624	
958	33104	25244	31668	35612	
959	33168	25272	31664	35612	
960	33168	25236	31652	35616	
961	33152	25272	31656	35616	
962	33088	25220	31664	35600	
963	33168	25296	31668	35584	
964	33136	25264	31672	35636	
965	33152	25224	31636	35612	
966	33120	25252	31636	35604	
967	33072	25240	31648	35600	
968	32912	25208	31656	35576	
969	32944	25212	31652	35596	
970	32976	25236	31676	35596	
971	32912	25188	31652	35568	
972	32976	25224	31628	35552	
973	32944	25236	31660	35588	
974	32864	25208	31656	35584	
975	32864	25252	31656	35592	
976	32816	25216	31644	35584	
977	32880	25200	31660	35568	
978	32928	25200	31648	35576	
979	32928	25164	31664	35580	
980	32912	25216	31652	35544	
981	32928	25228	31660	35576	
982	32864	25248	31632	35580	
983	32784	25220	31640	35572	
984	32720	25212	31684	35548	
985	32704	25248	31688	35588	
986	32736	25168	31676	35596	
987	32704	25240	31680	35568	
988	32704	25200	31684	35564	
989	32784	25196	31672	35592	
990	32752	25272	31692	35592	
991	32752	25216	31692	35576	
992	32656	25216	31680	35576	
993	32784	25200	31708	35572	
994	32768	25200	31672	35572	
995	32704	25220	31688	35520	
996	32528	25244	31684	35552	
997	32352	25224	31668	35564	
998	32192	25260	31680	35552	
999	32048	25224	31668	35548	
1000	31904	25212	31668	35580	
1001	31808	25232	31692	35552	
1002	31824	25240	31684	35504	
1003	31840	25208	31672	35540	
1004	31792	25208	31684	35580	
1005	31712	25236	31676	35560	
1006	31616	25244	31704	35532	
1007	31616	25244	31684	35540	
1008	31568	25232	31664	35580	
1009	31568	25232	31680	35532	
1010	31632	25288	31696	35588	
1011	31792	25268	31692	35592	
1012	31984	25296	31700	35600	
1013	32064	25240	31692	35592	
1014	32192	25296	31672	35548	
1015	32256	25300	31680	35560	
1016	32448	25276	31676	35564	
1017	32528	25244	31688	35560	
1018	32512	25304	31684	35596	
1019	32640	25232	31684	35560	
1020	32720	25260	31664	35560	
1021	32784	25268	31696	35552	
1022	32848	25260	31672	35556	
1023	32896	25228	31700	35544	
1024	32864	25232	31696	35556	
1025	32928	25272	31684	35528	
1026	32864	25228	31696	35572	
1027	32880	25216	31688	35600	
1028	32896	25212	31672	35568	
1029	32832	25236	31676	35556	
1030	32768	25212	31692	35576	
1031	32736	25244	31700	35544	
1032	32704	25220	31680	35536	
1033	32608	25212	31652	35508	
1034	32528	25224	31656	35584	
1035	32528	25208	31648	35564	
1036	32704	25220	31644	35556	
1037	32896	25200	31624	35544	
1038	33088	25180	31640	35528	
1039	32688	25236	31624	35556	
1040	31888	25192	31640	35512	
1041	31536	25224	31636	35552	
1042	32000	25224	31612	35528	
1043	32768	25236	31620	35556	
1044	33440	25276	31624	35504	
1045	33408	25236	31628	35512	
1046	32736	25252	31624	35548	
1047	32704	25264	31652	35568	
1048	33168	25244	31620	35540	
1049	33280	25236	31656	35536	
1050	33120	25260	31668	35592	
1051	32976	25304	31696	35620	
1052	33472	25308	31692	35592	
1053	34368	25296	31684	35596	
1054	35248	25312	31720	35584	
1055	36752	25344	31760	35640	
1056	38784	25304	31796	35620	
1057	39936	25248	31764	35596	
1058	39856	25244	31724	35652	
1059	39056	25168	31640	35660	
1060	38048	25160	31604	35728	
1061	36864	25164	31516	35640	
1062	35648	25176	31476	35532	
1063	34608	25164	31500	35408	
1064	33568	25152	31524	35356	
1065	32672	25232	31552	35308	
1066	31904	25244	31608	35280	
1067	31344	25268	31636	35340	
1068	30880	25280	31604	35424	
1069	30496	25304	31560	35532	
1070	30272	25324	31600	35576	
1071	30032	25332	31668	35612	
1072	29968	25336	31724	35652	
1073	29936	25336	31756	35716	
1074	30016	25396	31756	35732	
1075	30016	25440	31740	35768	
1076	29984	25416	31736	35760	
1077	30112	25408	31732	35720	
1078	30160	25356	31756	35656	
1079	30160	25304	31756	35620	
1080	30240	25284	31688	35592	
1081	30272	25252	31652	35580	
1082	30256	25216	31564	35532	
1083	30256	25144	31536	35520	
1084	30352	25132	31524	35440	
1085	30368	25124	31512	35468	
1086	30432	25128	31532	35428	
1087	30432	25112	31556	35356	
1088	30480	25120	31620	35396	
1089	30592	25132	31628	35404	
1090	30624	25164	31616	35400	
1091	30624	25220	31700	35448	
1092	30656	25224	31720	35476	
1093	30704	25264	31708	35528	
1094	30640	25312	31712	35496	
1095	30640	25316	31700	35496	
1096	30656	25328	31696	35528	
1097	30688	25320	31696	35552	
1098	30784	25324	31636	35572	
1099	30816	25312	31612	35520	
1100	30896	25268	31592	35572	
1101	30944	25252	31604	35556	
1102	30992	25284	31616	35532	
1103	30960	25232	31640	35552	
1104	30992	25212	31664	35540	
1105	31040	25192	31688	35556	
1106	31024	25212	31684	35560	
1107	30992	25212	31696	35580	
1108	30928	25220	31704	35624	
1109	30896	25232	31712	35600	
1110	30912	25208	31708	35596	
1111	31008	25176	31724	35640	
1112	31056	25156	31708	35620	
1113	30960	25172	31692	35632	
1114	30928	25176	31680	35580	
1115	30864	25160	31660	35580	
1116	30864	25200	31648	35520	
1117	30912	25164	31652	35536	
1118	30880	25168	31652	35484	
1119	30912	25196	31636	35508	
1120	30896	25232	31616	35464	
1121	30880	25224	31620	35496	
1122	30912	25228	31632	35488	
1123	30992	25252	31608	35492	
1124	31056	25276	31644	35488	
1125	31184	25264	31644	35480	
1126	31296	25268	31584	35520	
1127	31392	25332	31648	35508	
1128	31472	25268	31632	35476	
1129	31536	25292	31624	35496	
1130	31632	25248	31692	35524	
1131	31712	25264	31688	35524	
1132	31856	25296	31696	35560	
1133	32032	25228	31660	35560	
1134	32080	25244	31700	35572	
1135	32128	25248	31696	35600	
1136	32144	25240	31712	35628	
1137	32192	25260	31732	35640	
1138	32288	25228	31704	35652	
1139	32272	25216	31696	35632	
1140	32256	25212	31700	35612	
1141	32336	25188	31684	35628	
1142	32272	25196	31668	35624	
1143	32240	25192	31636	35616	
1144	32208	25144	31648	35556	
1145	32144	25140	31656	35576	
1146	32096	25136	31636	35568	
1147	31968	25136	31648	35552	
1148	31984	25164	31652	35548	
1149	31920	25172	31656	35544	
1150	31872	25152	31652	35540	
1151	31888	25140	31640	35560	
1152	31840	25164	31604	35560	
1153	32016	25160	31632	35584	
1154	32064	25188	31648	35552	
1155	32144	25196	31612	35520	
1156	32224	25180	31600	35504	
1157	32272	25176	31608	35504	
1158	32304	25208	31636	35540	
1159	32416	25248	31640	35580	
1160	32448	25244	31668	35616	
1161	32576	25236	31660	35628	
1162	32672	25272	31680	35648	
1163	32704	25260	31692	35648	
1164	32656	25300	31688	35660	
1165	32688	25308	31672	35668	
1166	32736	25292	31648	35668	
1167	32768	25284	31640	35632	
1168	32784	25300	31620	35584	
1169	32832	25328	31632	35592	
1170	32880	25260	31596	35548	
1171	32848	25268	31644	35544	
1172	32896	25260	31616	35508	
1173	32816	25280	31636	35452	
1174	32912	25236	31616	35456	
1175	32944	25280	31608	35448	
1176	32912	25264	31648	35460	
1177	32912	25300	31600	35480	
1178	32896	25336	31624	35504	
1179	32928	25320	31612	35508	
1180	32896	25356	31612	35524	
1181	32896	25332	31652	35564	
1182	32880	25348	31668	35616	
1183	32880	25328	31656	35608	
1184	32928	25324	31668	35604	
1185	32960	25284	31660	35624	
1186	32928	25240	31652	35592	
1187	32960	25288	31684	35588	
1188	33024	25252	31708	35604	
1189	32992	25284	31672	35604	
1190	33088	25224	31700	35596	
1191	33088	25292	31692	35604	
1192	33008	25272	31668	35644	
1193	33056	25252	31680	35624	
1194	33024	25256	31668	35616	
1195	33008	25272	31676	35580	
1196	32976	25268	31636	35612	
1197	32928	25260	31624	35596	
1198	32960	25268	31652	35588	
1199	33120	25232	31636	35592	
1200	33136	25204	31660	35616	
1201	33120	25200	31628	35624	
1202	33184	25248	31612	35600	
1203	33200	25220	31652	35608	
1204	33264	25220	31620	35600	
1205	33248	25212	31624	35580	
1206	33344	25216	31636	35544	
1207	33376	25204	31604	35596	
1208	33312	25204	31612	35604	
1209	33312	25216	31616	35540	
1210	33280	25220	31632	35548	
1211	33264	25216	31632	35612	
1212	33296	25188	31616	35588	
1213	33344	25224	31652	35596	
1214	33248	25200	31652	35608	
1215	33152	25208	31612	35592	
1216	33104	25188	31644	35616	
1217	33120	25212	31636	35592	
1218	33136	25228	31664	35596	
1219	33136	25224	31656	35588	
1220	33088	25216	31660	35584	
1221	33024	25232	31676	35580	
1222	32992	25236	31664	35560	
1223	33024	25232	31672	35540	
1224	32880	25232	31660	35564	
1225	32864	25212	31648	35560	
1226	32800	25224	31680	35588	
1227	32800	25228	31632	35604	
1228	32720	25216	31656	35560	
1229	32784	25208	31672	35544	
1230	32768	25240	31696	35548	
1231	32688	25248	31668	35556	
1232	32688	25208	31656	35528	
1233	32640	25264	31648	35508	
1234	32704	25252	31656	35520	
1235	32736	25196	31676	35492	
1236	32768	25232	31652	35512	
1237	32784	25204	31668	35500	
1238	32816	25220	31648	35488	
1239	32848	25228	31620	35500	
1240	32832	25200	31600	35496	
1241	32688	25216	31640	35516	
1242	32528	25220	31652	35492	
1243	32400	25200	31604	35476	
1244	32224	25220	31648	35476	
1245	32144	25260	31624	35504	
1246	32000	25240	31600	35508	
1247	31904	25240	31608	35508	
1248	31792	25220	31632	35552	
1249	31776	25236	31616	35520	
1250	31760	25224	31624	35568	
1251	31712	25252	31620	35564	
1252	31632	25244	31636	35568	
1253	31536	25248	31608	35576	
1254	31456	25236	31636	35564	
1255	31440	25232	31624	35544	
1256	31504	25204	31632	35504	
1257	31632	25212	31604	35524	
1258	31776	25256	31640	35536	
1259	31984	25224	31628	35556	
1260	32064	25216	31616	35524	
1261	32240	25252	31620	35504	
1262	32352	25224	31608	35556	
1263	32400	25224	31636	35524	
1264	32416	25232	31636	35560	
1265	32448	25224	31640	35504	
1266	32480	25204	31600	35536	
1267	32560	25264	31632	35548	
1268	32704	25192	31624	35500	
1269	32800	25240	31636	35484	
1270	32832	25232	31620	35528	
1271	32928	25208	31636	35464	
1272	33008	25204	31644	35520	
1273	32912	25228	31640	35476	
1274	32832	25256	31616	35520	
1275	32896	25192	31660	35544	
1276	32816	25252	31612	35516	
1277	32800	25248	31640	35524	
1278	32704	25288	31596	35492	
1279	32688	25248	31612	35504	
1280	32736	25224	31608	35492	
1281	32768	25260	31572	35452	
1282	32864	25248	31588	35444	
1283	33088	25248	31588	35436	
1284	33280	25232	31576	35432	
1285	32944	25244	31568	35436	
1286	32304	25256	31556	35424	
1287	32496	25244	31568	35400	
1288	33344	25216	31572	35436	
1289	34352	25236	31572	35472	
1290	35072	25256	31600	35472	
1291	34944	25264	31564	35484	
1292	33968	25212	31572	35500	
1293	33760	25232	31572	35536	
1294	34032	25236	31596	35520	
1295	33952	25220	31616	35572	
1296	33488	25224	31616	35560	
1297	33024	25208	31656	35580	
1298	33056	25228	31664	35600	
1299	33888	25188	31688	35628	
1300	34640	25180	31736	35648	
1301	35792	25156	31740	35660	
1302	37904	25144	31732	35596	
1303	39328	25168	31736	35636	
1304	39472	25180	31676	35576	
1305	38752	25164	31616	35588	
1306	37600	25132	31520	35556	
1307	36336	25112	31464	35472	
1308	35136	25124	31456	35412	
1309	34016	25116	31400	35312	
1310	33184	25104	31396	35228	
1311	32480	25164	31420	35184	
1312	31744	25148	31460	35184	
1313	31088	25164	31480	35232	
1314	30624	25188	31492	35288	
1315	30272	25224	31496	35448	
1316	30128	25264	31532	35500	
1317	30016	25336	31616	35548	
1318	30016	25336	31668	35576	
1319	30064	25312	31748	35604	
1320	30064	25332	31756	35664	
1321	30048	25360	31732	35732	
1322	30096	25368	31736	35760	
1323	30144	25356	31744	35788	
1324	30192	25312	31744	35692	
1325	30144	25296	31736	35652	
1326	30240	25220	31740	35556	
1327	30272	25184	31672	35496	
1328	30336	25152	31608	35476	
1329	30384	25132	31560	35476	
1330	30464	25108	31488	35456	
1331	30512	25076	31500	35388	
1332	30544	25100	31484	35356	
1333	30544	25076	31508	35384	
1334	30608	25076	31524	35312	
1335	30640	25068	31524	35300	
1336	30608	25072	31548	35336	
1337	30608	25100	31576	35308	
1338	30656	25212	31584	35320	
1339	30672	25224	31604	35372	
1340	30640	25272	31584	35356	
1341	30672	25312	31640	35392	
1342	30624	25352	31600	35384	
1343	30672	25332	31612	35424	
1344	30816	25356	31580	35380	
1345	30864	25324	31552	35448	
1346	30944	25316	31564	35460	
1347	30992	25284	31552	35472	
1348	30960	25244	31564	35516	
1349	30944	25240	31572	35500	
1350	31024	25248	31572	35536	
1351	30944	25248	31588	35528	
1352	31056	25216	31592	35516	
1353	30944	25264	31636	35556	
1354	30912	25236	31624	35516	
1355	30896	25188	31628	35552	
1356	30816	25180	31648	35580	
1357	30880	25184	31636	35576	
1358	30832	25168	31648	35572	
1359	30864	25188	31632	35560	
1360	30864	25140	31652	35556	
1361	30848	25160	31620	35584	
1362	30768	25172	31592	35544	
1363	30784	25160	31616	35528	
1364	30800	25160	31584	35488	
1365	30832	25148	31568	35480	
1366	30816	25180	31556	35448	
1367	30816	25216	31588	35448	
1368	30752	25156	31552	35424	
1369	30832	25224	31536	35444	
1370	30896	25200	31532	35416	
1371	30992	25232	31552	35400	
1372	31120	25220	31540	35396	
1373	31232	25240	31544	35388	
1374	31312	25244	31548	35412	
1375	31408	25280	31572	35432	
1376	31520	25224	31528	35452	
1377	31648	25228	31580	35448	
1378	31744	25288	31580	35484	
1379	31792	25264	31588	35488	
1380	31904	25248	31568	35480	
1381	32000	25224	31608	35512	
1382	32096	25240	31592	35492	
1383	32160	25244	31628	35484	
1384	32224	25252	31648	35544	
1385	32160	25264	31608	35508	
1386	32192	25252	31648	35544	
1387	32256	25240	31600	35528	
1388	32192	25212	31628	35516	
1389	32192	25200	31636	35528	
1390	32192	25188	31616	35500	
1391	32144	25220	31592	35496	
1392	32080	25224	31612	35492	
1393	32016	25192	31604	35492	
1394	32048	25180	31576	35448	
1395	32048	25192	31588	35472	
1396	32064	25192	31580	35468	
1397	32192	25180	31596	35460	
1398	32192	25156	31612	35452	
1399	32272	25168	31580	35480	
1400	32256	25160	31600	35496	
1401	32416	25144	31596	35496	
1402	32464	25132	31588	35528	
1403	32608	25144	31584	35508	
1404	32656	25144	31604	35504	
1405	32752	25128	31556	35480	
1406	32880	25172	31544	35420	
1407	32960	25152	31580	35456	
1408	32928	25164	31608	35460	
1409	32896	25188	31596	35500	
1410	32992	25176	31596	35508	
1411	33056	25208	31612	35516	
1412	33040	25152	31600	35564	
1413	33008	25184	31580	35600	
1414	33024	25192	31584	35600	
1415	32992	25204	31596	35584	
1416	33008	25188	31568	35572	
1417	33056	25208	31592	35532	
1418	33024	25216	31540	35468	
1419	33024	25188	31556	35448	
1420	33024	25188	31532	35456	
1421	33072	25172	31540	35428	
1422	32976	25160	31560	35392	
1423	33024	25196	31552	35420	
1424	33024	25164	31584	35436	
1425	33008	25228	31632	35424	
1426	32976	25196	31620	35448	
1427	32976	25232	31648	35472	
1428	32944	25252	31640	35496	
1429	32896	25260	31668	35456	
1430	32880	25312	31668	35540	
1431	32864	25280	31656	35516	
1432	32928	25264	31628	35524	
1433	32912	25216	31632	35532	
1434	32928	25264	31640	35528	
1435	32912	25228	31596	35484	
1436	32912	25224	31644	35536	
1437	33024	25204	31612	35524	
1438	32976	25248	31608	35484	
1439	32960	25200	31632	35528	
1440	32928	25224	31600	35504	
1441	32912	25220	31620	35516	
1442	32960	25284	31636	35524	
1443	32992	25280	31608	35512	
1444	32992	25280	31588	35508	
1445	33056	25252	31620	35512	
1446	33008	25204	31600	35564	
1447	33072	25260	31616	35528	
1448	33120	25224	31612	35504	
1449	33104	25240	31632	35524	
1450	33120	25224	31588	35504	
1451	33120	25228	31608	35544	
1452	33200	25232	31624	35520	
1453	33120	25200	31612	35508	
1454	33040	25232	31592	35492	
1455	33024	25212	31620	35476	
1456	33088	25200	31616	35492	
1457	33024	25232	31596	35492	
1458	33040	25176	31604	35492	
1459	33024	25200	31556	35480	
1460	32960	25220	31596	35480	
1461	32944	25208	31580	35444	
1462	33024	25228	31596	35476	
1463	33008	25192	31584	35460	
1464	32960	25180	31588	35488	
1465	32960	25224	31604	35484	
1466	32928	25228	31576	35496	
1467	32896	25228	31620	35508	
1468	32928	25240	31600	35484	
1469	32864	25256	31604	35472	
1470	32864	25228	31604	35484	
1471	32848	25256	31592	35520	
1472	32832	25252	31628	35536	
1473	32816	25196	31600	35480	
1474	32736	25204	31604	35484	
1475	32720	25220	31608	35492	
1476	32688	25224	31612	35472	
1477	32608	25228	31620	35496	
1478	32608	25220	31620	35500	
1479	32640	25216	31608	35472	
1480	32560	25212	31564	35464	
1481	32544	25252	31580	35484	
1482	32560	25240	31592	35440	
1483	32592	25204	31596	35484	
1484	32576	25204	31564	35456	
1485	32592	25236	31588	35452	
1486	32640	25220	31608	35480	
1487	32656	25224	31604	35468	
1488	32672	25240	31576	35456	
1489	32624	25220	31580	35476	
1490	32560	25188	31584	35468	
1491	32624	25224	31584	35480	
1492	32528	25220	31604	35476	
1493	32512	25216	31612	35516	
1494	32528	25236	31572	35464	
1495	32560	25220	31604	35476	
1496	32640	25232	31592	35464	
1497	32608	25232	31588	35468	
1498	32496	25228	31584	35516	
1499	32336	25232	31576	35520	
1500	32096	25228	31600	35500	
1501	31952	25244	31596	35500	
1502	31808	25224	31596	35532	
1503	31728	25244	31596	35512	
1504	31680	25204	31592	35524	
1505	31680	25212	31588	35508	
1506	31712	25228	31596	35560	
1507	31680	25180	31568	35532	
1508	31632	25232	31588	35504	
1509	31552	25212	31596	35492	
1510	31376	25204	31576	35512	
1511	31408	25200	31568	35528	
1512	31456	25200	31588	35532	
1513	31648	25220	31584	35524	
1514	31808	25224	31560	35492	
1515	31904	25228	31564	35504	
1516	32112	25188	31580	35496	
1517	32256	25228	31576	35520	
1518	32400	25252	31572	35504	
1519	32448	25204	31588	35532	
1520	32464	25240	31584	35552	
1521	32496	25224	31592	35524	
1522	32512	25212	31592	35508	
1523	32576	25220	31580	35540	
1524	32816	25216	31580	35512	
1525	32832	25208	31628	35492	
1526	32928	25220	31600	35504	
1527	32896	25192	31576	35488	
1528	32880	25224	31608	35520	
1529	32912	25208	31604	35488	
1530	32896	25196	31612	35504	
1531	32880	25196	31576	35520	
1532	32864	25220	31592	35500	
1533	32864	25216	31596	35484	
1534	32832	25232	31652	35488	
1535	32752	25208	31612	35484	
1536	32752	25200	31604	35456	
1537	32864	25220	31612	35480	
1538	33120	25212	31604	35456	
1539	33328	25232	31592	35464	
1540	33536	25196	31600	35464	
1541	33168	25244	31564	35440	
1542	32864	25236	31600	35428	
1543	33616	25208	31584	35468	
1544	34528	25212	31584	35464	
1545	35424	25252	31604	35480	
1546	35696	25224	31612	35476	
1547	34944	25192	31616	35516	
1548	33904	25256	31624	35520	
1549	33904	25240	31616	35472	
1550	33904	25240	31600	35540	
1551	33600	25256	31640	35484	
1552	32976	25232	31624	35556	
1553	32448	25224	31652	35576	
1554	32656	25200	31676	35596	
1555	33712	25252	31664	35584	
1556	34320	25192	31696	35580	
1557	36032	25204	31736	35600	
1558	38192	25172	31756	35556	
1559	39200	25144	31744	35548	
1560	38848	25164	31692	35572	
1561	37920	25112	31632	35568	
1562	36736	25128	31540	35544	
1563	35440	25132	31468	35464	
1564	34336	25140	31408	35328	
1565	33312	25160	31416	35248	
1566	32560	25160	31428	35200	
1567	31872	25180	31408	35172	
1568	31168	25136	31452	35200	
1569	30640	25184	31440	35256	
1570	30288	25216	31444	35376	
1571	29968	25292	31472	35480	
1572	29872	25308	31532	35504	
1573	29872	25364	31612	35516	
1574	29856	25380	31700	35552	
1575	29936	25388	31728	35540	
1576	30016	25364	31720	35604	
1577	30080	25332	31760	35684	
1578	30112	25296	31736	35688	
1579	30064	25284	31724	35628	
1580	30016	25252	31728	35632	
1581	30080	25248	31720	35568	
1582	30160	25204	31700	35516	
1583	30240	25156	31692	35524	
1584	30288	25148	31612	35492	
1585	30320	25120	31600	35456	
1586	30368	25128	31548	35472	
1587	30384	25112	31520	35480	
1588	30480	25100	31488	35424	
1589	30544	25100	31492	35436	
1590	30576	25100	31496	35408	
1591	30608	25104	31512	35364	
1592	30640	25108	31540	35360	
1593	30688	25124	31564	35328	
1594	30784	25120	31548	35288	
1595	30864	25148	31576	35284	
1596	30880	25156	31568	35304	
1597	30848	25204	31584	35280	
1598	30864	25268	31572	35272	
1599	30896	25268	31592	35308	
1600	30832	25320	31600	35320	
1601	30896	25316	31596	35380	
1602	30928	25320	31612	35380	
1603	30896	25316	31556	35404	
1604	30912	25296	31568	35460	
1605	30880	25320	31564	35420	
1606	30912	25276	31568	35428	
1607	30864	25256	31588	35468	
1608	30880	25248	31620	35500	
1609	30880	25284	31624	35492	
1610	30848	25212	31628	35532	
1611	30848	25240	31656	35524	
1612	30912	25228	31624	35524	
1613	30944	25216	31664	35604	
1614	30912	25180	31648	35588	
1615	30912	25196	31660	35592	
1616	30896	25180	31656	35608	
1617	30864	25172	31604	35620	
1618	30896	25184	31600	35612	
1619	30912	25228	31560	35568	
1620	31008	25148	31580	35568	
1621	31056	25176	31580	35564	
1622	31088	25176	31580	35528	
1623	31104	25172	31544	35528	
1624	31200	25156	31528	35532	
1625	31168	25172	31544	35476	
1626	31248	25136	31528	35480	
1627	31312	25184	31532	35472	
1628	31376	25196	31532	35468	
1629	31488	25168	31516	35484	
1630	31584	25164	31536	35468	
1631	31664	25176	31544	35464	
1632	31840	25188	31524	35424	
1633	31968	25160	31516	35452	
1634	31952	25156	31536	35432	
1635	32016	25200	31524	35480	
1636	32096	25176	31528	35464	
1637	32144	25204	31536	35464	
1638	32192	25208	31584	35488	
1639	32256	25252	31560	35492	
1640	32272	25220	31584	35508	
1641	32272	25236	31600	35516	
1642	32336	25220	31572	35516	
1643	32272	25220	31572	35532	
1644	32256	25192	31576	35532	
1645	32144	25244	31580	35508	
1646	32096	25224	31556	35524	
1647	32048	25276	31564	35504	
1648	32112	25248	31556	35500	
1649	32096	25264	31580	35496	
1650	32048	25256	31588	35484	
1651	32032	25236	31560	35476	
1652	32016	25240	31556	35512	
1653	32096	25140	31572	35512	
1654	32176	25224	31576	35484	
1655	32272	25212	31556	35500	
1656	32336	25204	31580	35464	
1657	32352	25204	31588	35484	
1658	32448	25208	31560	35496	
1659	32544	25200	31584	35500	
1660	32624	25200	31596	35456	
1661	32656	25216	31568	35472	
1662	32704	25204	31580	35444	
1663	32768	25176	31580	35388	
1664	32816	25252	31608	35372	
1665	32864	25224	31592	35464	
1666	32976	25196	31592	35456	
1667	32976	25212	31616	35484	
1668	32944	25216	31600	35480	
1669	33056	25224	31620	35448	
1670	32992	25172	31632	35500	
1671	32992	25144	31624	35544	
1672	32992	25152	31584	35564	
1673	32912	25156	31612	35572	
1674	32896	25156	31596	35504	
1675	32928	25156	31552	35500	
1676	33024	25168	31560	35476	
1677	32960	25172	31544	35440	
1678	32896	25172	31564	35424	
1679	32880	25200	31580	35428	
1680	32880	25196	31568	35468	
1681	32864	25232	31604	35440	
1682	32832	25212	31608	35484	
1683	32816	25260	31596	35480	
1684	32784	25220	31592	35488	
1685	32848	25232	31624	35528	
1686	32880	25232	31608	35536	
1687	32912	25228	31656	35520	
1688	32928	25216	31600	35516	
1689	32896	25228	31596	35516	
1690	32896	25192	31564	35488	
1691	32976	25260	31600	35516	
1692	33040	25244	31592	35484	
1693	32992	25216	31584	35496	
1694	32960	25220	31584	35488	
1695	32944	25208	31600	35496	
1696	32912	25220	31548	35496	
1697	32912	25192	31556	35504	
1698	32944	25188	31576	35500	
1699	32864	25220	31580	35488	
1700	32928	25208	31560	35484	
1701	32944	25228	31564	35544	
1702	32880	25232	31592	35500	
1703	32816	25204	31576	35576	
1704	32864	25180	31596	35548	
1705	32880	25264	31564	35516	
1706	32864	25224	31592	35516	
1707	32864	25236	31600	35520	
1708	32880	25224	31588	35540	
1709	32944	25228	31632	35520	
1710	32912	25204	31620	35556	
1711	33024	25204	31588	35548	
1712	33008	25188	31624	35528	
1713	33040	25196	31600	35540	
1714	32992	25180	31588	35532	
1715	33024	25204	31624	35512	
1716	33008	25204	31600	35520	
1717	32928	25200	31620	35524	
1718	32912	25232	31640	35516	
1719	32896	25180	31624	35532	
1720	32912	25196	31612	35488	
1721	32848	25204	31584	35496	
1722	32912	25176	31608	35504	
1723	32960	25220	31632	35496	
1724	32896	25184	31624	35512	
1725	32864	25176	31644	35504	
1726	32880	25160	31580	35492	
1727	32848	25204	31612	35492	
1728	32768	25168	31636	35500	
1729	32768	25204	31616	35488	
1730	32736	25212	31612	35468	
1731	32816	25216	31620	35428	
1732	32768	25176	31612	35472	
1733	32704	25228	31604	35472	
1734	32736	25208	31600	35468	
1735	32752	25192	31600	35492	
1736	32768	25196	31584	35468	
1737	32768	25200	31576	35476	
1738	32784	25168	31628	35452	
1739	32768	25208	31628	35500	
1740	32800	25212	31608	35500	
1741	32800	25176	31612	35496	
1742	32768	25220	31596	35496	
1743	32736	25220	31644	35516	
1744	32736	25176	31640	35496	
1745	32672	25168	31608	35536	
1746	32640	25212	31600	35520	
1747	32640	25200	31608	35504	
1748	32640	25220	31612	35480	
1749	32720	25204	31616	35492	
1750	32784	25160	31584	35500	
1751	32752	25228	31608	35496	
1752	32752	25168	31588	35476	
1753	32704	25208	31616	35496	
1754	32640	25208	31616	35512	
1755	32640	25200	31636	35508	
1756	32624	25172	31632	35520	
1757	32592	25200	31568	35552	
1758	32576	25208	31596	35548	
1759	32560	25216	31596	35536	
1760	32448	25220	31616	35568	
1761	32272	25216	31588	35532	
1762	32128	25212	31624	35552	
1763	31984	25208	31588	35528	
1764	31872	25212	31576	35536	
1765	31824	25224	31616	35540	
1766	31712	25208	31604	35516	
1767	31744	25216	31588	35524	
1768	31744	25208	31580	35524	
1769	31824	25196	31600	35516	
1770	31776	25236	31596	35568	
1771	31728	25208	31588	35492	
1772	31680	25232	31612	35548	
1773	31600	25240	31628	35560	
1774	31664	25196	31584	35588	
1775	31696	25228	31628	35564	
1776	31840	25212	31604	35560	
1777	31952	25224	31612	35584	
1778	32048	25208	31616	35596	
1779	32144	25216	31628	35588	
1780	32224	25204	31636	35608	
1781	32288	25188	31656	35584	
1782	32240	25168	31640	35612	
1783	32320	25208	31628	35580	
1784	32368	25152	31652	35580	
1785	32496	25232	31640	35604	
1786	32640	25216	31628	35556	
1787	32736	25188	31624	35600	
1788	32912	25176	31644	35532	
1789	32960	25220	31636	35568	
1790	32992	25204	31648	35548	
1791	32976	25180	31652	35532	
1792	32960	25184	31652	35520	
1793	32912	25224	31656	35512	
1794	32896	25184	31608	35516	
1795	32832	25184	31644	35504	
1796	32832	25196	31628	35516	
1797	32816	25224	31624	35512	
1798	32816	25220	31652	35456	
1799	32864	25212	31660	35480	
1800	32992	25212	31648	35456	
1801	33168	25208	31644	35456	
1802	33520	25224	31632	35424	
1803	33632	25216	31648	35436	
1804	33424	25204	31588	35456	
1805	33344	25196	31620	35468	
1806	34064	25188	31636	35408	
1807	34576	25216	31612	35452	
1808	35168	25200	31604	35464	
1809	34912	25192	31640	35448	
1810	33728	25188	31660	35508	
1811	32704	25200	31660	35520	
1812	32624	25216	31676	35540	
1813	32512	25216	31688	35584	
1814	32272	25168	31684	35548	
1815	31696	25188	31712	35588	
1816	31232	25188	31700	35584	
1817	31632	25188	31696	35604	
1818	32864	25188	31720	35596	
1819	33952	25188	31736	35588	
1820	35936	25204	31780	35584	
1821	38192	25216	31792	35592	
1822	39120	25188	31784	35592	
1823	38896	25212	31776	35584	
1824	38096	25168	31712	35588	
1825	36928	25168	31672	35616	
1826	35792	25108	31580	35576	
1827	34624	25096	31500	35348	
1828	33616	25104	31436	35288	
1829	32912	25132	31460	35192	
1830	32192	25116	31476	35152	
1831	31664	25176	31504	35164	
1832	31200	25188	31444	35228	
1833	30864	25244	31464	35364	
1834	30624	25284	31456	35408	
1835	30560	25344	31540	35480	
1836	30560	25364	31564	35488	
1837	30544	25364	31664	35496	
1838	30512	25352	31704	35500	
1839	30576	25352	31740	35544	
1840	30576	25356	31700	35616	
1841	30656	25352	31740	35660	
1842	30672	25328	31736	35596	
1843	30624	25352	31724	35592	
1844	30624	25272	31744	35520	
1845	30640	25284	31732	35512	
1846	30688	25208	31652	35496	
1847	30864	25172	31632	35488	
1848	30848	25132	31604	35472	
1849	30944	25128	31568	35460	
1850	30896	25088	31528	35460	
1851	30928	25092	31524	35436	
1852	30960	25084	31488	35404	
1853	30992	25100	31504	35360	
1854	30976	25120	31532	35376	
1855	31056	25156	31548	35348	
1856	30992	25116	31552	35328	
1857	31056	25160	31564	35328	
1858	31056	25188	31544	35308	
1859	31040	25188	31572	35292	
1860	31088	25200	31572	35292	
1861	31072	25272	31584	35276	
1862	31168	25288	31588	35284	
1863	31184	25248	31628	35296	
1864	31264	25280	31592	35320	
1865	31248	25320	31572	35384	
1866	31248	25268	31564	35408	
1867	31216	25288	31560	35408	
1868	31280	25316	31576	35472	
1869	31248	25272	31592	35480	
1870	31232	25292	31604	35536	
1871	31248	25256	31624	35552	
1872	31152	25280	31624	35576	
1873	31168	25184	31664	35560	
1874	31216	25204	31672	35592	
1875	31248	25168	31692	35588	
1876	31248	25168	31680	35616	
1877	31248	25136	31684	35580	
1878	31232	25140	31688	35572	
1879	31280	25128	31668	35596	
1880	31264	25112	31644	35568	
1881	31312	25104	31596	35544	
1882	31312	25128	31620	35524	
1883	31296	25136	31584	35496	
1884	31296	25136	31596	35488	
1885	31328	25152	31576	35432	
1886	31376	25152	31544	35444	
1887	31392	25160	31540	35484	
1888	31440	25180	31544	35460	
1889	31552	25168	31548	35444	
1890	31616	25180	31560	35456	
1891	31776	25156	31552	35404	
1892	31840	25184	31576	35388	
1893	31856	25156	31528	35388	
1894	31888	25156	31560	35376	
1895	31936	25184	31532	35380	
1896	32032	25176	31540	35344	
1897	32128	25208	31544	35364	
1898	32128	25196	31560	35380	
1899	32176	25208	31584	35432	
1900	32304	25220	31568	35408	
1901	32384	25204	31616	35404	
1902	32368	25244	31596	35472	
1903	32336	25264	31572	35480	
1904	32352	25196	31576	35460	
1905	32368	25216	31612	35484	
1906	32352	25212	31624	35504	
1907	32416	25204	31660	35476	
1908	32256	25216	31632	35468	
1909	32160	25172	31616	35516	
1910	32064	25168	31624	35484	
1911	32000	25168	31620	35484	
1912	31888	25164	31656	35524	
1913	31952	25164	31604	35480	
1914	32064	25192	31636	35468	
1915	32096	25168	31616	35472	
1916	32048	25140	31640	35500	
1917	32064	25172	31632	35480	
1918	32080	25168	31660	35504	
1919	32112	25152	31632	35476	
1920	32256	25152	31644	35472	
1921	32320	25140	31656	35436	
1922	32368	25116	31620	35412	
1923	32448	25124	31596	35368	
1924	32480	25132	31612	35356	
1925	32560	25148	31636	35376	
1926	32640	25156	31616	35372	
1927	32688	25148	31612	35384	
1928	32704	25140	31644	35412	
1929	32704	25152	31608	35428	
1930	32736	25132	31608	35500	
1931	32800	25184	31592	35504	
1932	32784	25164	31552	35476	
1933	32832	25152	31564	35488	
1934	32752	25180	31556	35480	
1935	32832	25168	31568	35440	
1936	32896	25160	31584	35420	
1937	32944	25168	31548	35424	
1938	32944	25188	31560	35380	
1939	32960	25188	31568	35420	
1940	32928	25160	31564	35384	
1941	32848	25192	31588	35412	
1942	32848	25200	31612	35404	
1943	32896	25188	31580	35452	
1944	32896	25200	31624	35400	
1945	32896	25240	31604	35436	
1946	32912	25196	31616	35464	
1947	32912	25232	31632	35456	
1948	33008	25220	31648	35492	
1949	33040	25220	31636	35476	
1950	33024	25252	31628	35464	
1951	33024	25256	31624	35472	
1952	32944	25276	31604	35444	
1953	32912	25232	31624	35500	
1954	32912	25248	31624	35488	
1955	32912	25176	31624	35452	
1956	32960	25236	31620	35480	
1957	32976	25216	31608	35488	
1958	33024	25212	31664	35496	
1959	32992	25228	31652	35472	
1960	32960	25208	31608	35472	
1961	33024	25196	31608	35480	
1962	33008	25220	31652	35480	
1963	32976	25204	31636	35496	
1964	33024	25212	31636	35476	
1965	33024	25236	31612	35516	
1966	32960	25244	31648	35516	
1967	32928	25208	31664	35532	
1968	32928	25220	31648	35520	
1969	32992	25224	31648	35492	
1970	33056	25140	31652	35492	
1971	32992	25188	31652	35504	
1972	33040	25164	31640	35488	
1973	33040	25192	31592	35508	
1974	32944	25164	31604	35456	
1975	32976	25164	31656	35436	
1976	32960	25184	31664	35468	
1977	32912	25168	31648	35464	
1978	32912	25164	31656	35464	
1979	32960	25152	31620	35488	
1980	32928	25152	31616	35468	
1981	32912	25192	31640	35436	
1982	32816	25176	31620	35476	
1983	32736	25152	31668	35456	
1984	32752	25140	31648	35472	
1985	32736	25184	31648	35408	
1986	32720	25180	31660	35476	
1987	32784	25160	31632	35468	
1988	32784	25168	31620	35448	
1989	32688	25176	31648	35444	
1990	32736	25176	31664	35452	
1991	32720	25200	31676	35452	
1992	32768	25156	31656	35448	
1993	32736	25156	31664	35436	
1994	32672	25168	31636	35484	
1995	32688	25180	31652	35432	
1996	32640	25172	31628	35448	
1997	32672	25176	31640	35464	
1998	32608	25140	31648	35476	
1999	32608	25172	31640	35488	
2000	32592	25160	31636	35464	
2001	32608	25136	31660	35472	
2002	32560	25192	31644	35472	
2003	32576	25176	31600	35464	
2004	32640	25176	31620	35492	
2005	32624	25232	31616	35476	
2006	32528	25188	31608	35436	
2007	32560	25208	31624	35428	
2008	32496	25172	31640	35452	
2009	32432	25192	31616	35444	
2010	32320	25184	31636	35448	
2011	32128	25192	31600	35452	
2012	32016	25216	31612	35436	
2013	31904	25196	31616	35476	
2014	31888	25228	31628	35492	
2015	31744	25196	31640	35472	
2016	31728	25204	31628	35456	
2017	31792	25220	31636	35464	
2018	31728	25232	31612	35464	
2019	31696	25220	31640	35472	
2020	31712	25216	31624	35504	
2021	31664	25232	31624	35480	
2022	31568	25224	31640	35512	
2023	31568	25240	31588	35496	
2024	31648	25264	31652	35472	
2025	31792	25244	31612	35480	
2026	31920	25232	31612	35484	
2027	32000	25272	31632	35476	
2028	32112	25192	31624	35480	
2029	32320	25212	31628	35512	
2030	32368	25196	31600	35480	
2031	32400	25184	31644	35480	
2032	32464	25220	31652	35492	
2033	32416	25208	31624	35480	
2034	32576	25220	31668	35496	
2035	32704	25224	31664	35532	
2036	32752	25204	31652	35500	
2037	32816	25224	31624	35508	
2038	32816	25212	31612	35484	
2039	32896	25212	31636	35484	
2040	32880	25212	31620	35492	
2041	32880	25180	31600	35492	
2042	32832	25212	31624	35472	
2043	32736	25208	31632	35472	
2044	32624	25208	31612	35468	
2045	32528	25196	31596	35436	
2046	32480	25176	31564	35428	
2047	32528	25160	31624	35464	
2048	32544	25180	31592	35412	
2049	32480	25184	31572	35432	
2050	32672	25160	31576	35388	
2051	32848	25168	31576	35376	
2052	33120	25128	31580	35400	
2053	33008	25188	31584	35424	
2054	32368	25164	31576	35440	
2055	31904	25192	31572	35436	
2056	32064	25196	31628	35448	
2057	32448	25176	31612	35504	
2058	32816	25188	31592	35548	
2059	32752	25160	31612	35504	
2060	32016	25188	31620	35504	
2061	31376	25176	31616	35548	
2062	31760	25196	31644	35544	
2063	31968	25192	31644	35556	
2064	31760	25152	31624	35556	
2065	31552	25180	31660	35552	
2066	31728	25192	31672	35536	
2067	32576	25184	31672	35544	
2068	33792	25168	31664	35552	
2069	35008	25208	31708	35560	
2070	37088	25220	31744	35576	
2071	38720	25216	31784	35576	
2072	39504	25196	31760	35540	
2073	39120	25152	31712	35548	
2074	38320	25128	31676	35568	
2075	37392	25128	31632	35628	
2076	36240	25120	31552	35588	
2077	35184	25084	31504	35528	
2078	34192	25108	31476	35464	
2079	33520	25096	31460	35380	
2080	32864	25152	31464	35304	
2081	32208	25148	31528	35248	
2082	31648	25192	31576	35248	
2083	31184	25212	31544	35240	
2084	30928	25240	31536	35296	
2085	30720	25248	31536	35376	
2086	30592	25256	31584	35436	
2087	30576	25324	31680	35492	
2088	30528	25284	31724	35504	
2089	30528	25348	31744	35524	
2090	30480	25392	31708	35560	
2091	30512	25412	31700	35604	
2092	30576	25400	31696	35576	
2093	30624	25396	31696	35512	
2094	30624	25364	31720	35480	
2095	30704	25340	31712	35424	
2096	30816	25368	31668	35372	
2097	30752	25328	31628	35396	
2098	30736	25248	31592	35368	
2099	30768	25260	31568	35340	
2100	30832	25204	31500	35352	
2101	30864	25164	31524	35340	
2102	30880	25152	31516	35312	
2103	30944	25156	31564	35316	
2104	30880	25160	31552	35292	
2105	30976	25144	31608	35360	
2106	30960	25176	31628	35352	
2107	30960	25192	31684	35384	
2108	31008	25228	31696	35464	
2109	31088	25288	31692	35456	
2110	31120	25276	31676	35468	
2111	30992	25284	31664	35520	
2112	31056	25288	31640	35540	
2113	31008	25300	31596	35504	
2114	31088	25300	31616	35508	
2115	31088	25220	31588	35520	
2116	31168	25220	31592	35500	
2117	31184	25216	31584	35456	
2118	31200	25204	31568	35472	
2119	31136	25172	31612	35464	
2120	31152	25156	31644	35464	
2121	31184	25132	31620	35504	
2122	31168	25140	31640	35524	
2123	31200	25160	31632	35552	
2124	31184	25152	31660	35504	
2125	31184	25128	31656	35544	
2126	31136	25120	31640	35516	
2127	31136	25144	31648	35572	
2128	31200	25132	31648	35536	
2129	31104	25168	31644	35544	
2130	31072	25132	31640	35544	
2131	31088	25136	31608	35500	
2132	31152	25156	31608	35484	
2133	31072	25172	31588	35444	
2134	31168	25172	31576	35412	
2135	31216	25168	31572	35432	
2136	31120	25164	31576	35424	
2137	31152	25172	31572	35436	
2138	31232	25200	31576	35404	
2139	31312	25196	31556	35388	
2140	31328	25220	31572	35412	
2141	31440	25272	31588	35424	
2142	31504	25264	31572	35412	
2143	31552	25240	31588	35448	
2144	31536	25252	31568	35420	
2145	31632	25284	31576	35412	
2146	31776	25240	31616	35448	
2147	31856	25256	31592	35436	
2148	31984	25272	31600	35464	
2149	31952	25248	31624	35472	
2150	31968	25272	31608	35464	
2151	32080	25256	31656	35508	
2152	32160	25224	31616	35484	
2153	32288	25232	31632	35532	
2154	32304	25236	31624	35476	
2155	32304	25208	31636	35484	
2156	32336	25232	31620	35504	
2157	32208	25248	31604	35524	
2158	32176	25180	31620	35496	
2159	32128	25212	31592	35524	
2160	32144	25224	31568	35508	
2161	32176	25216	31604	35484	
2162	32128	25188	31604	35484	
2163	32064	25160	31604	35484	
2164	32064	25208	31584	35496	
2165	32000	25176	31624	35472	
2166	31984	25192	31632	35444	
2167	32064	25184	31616	35436	
2168	32096	25160	31600	35448	
2169	32112	25184	31604	35404	
2170	32112	25196	31596	35404	
2171	32224	25184	31576	35392	
2172	32256	25200	31560	35356	
2173	32320	25200	31580	35380	
2174	32400	25268	31604	35376	
2175	32448	25208	31652	35484	
2176	32496	25252	31652	35520	
2177	32480	25220	31648	35564	
2178	32560	25224	31628	35528	
2179	32624	25224	31604	35564	
2180	32608	25212	31648	35572	
2181	32560	25144	31608	35568	
2182	32528	25244	31620	35508	
2183	32560	25188	31576	35508	
2184	32576	25184	31572	35492	
2185	32592	25192	31608	35428	
2186	32640	25172	31564	35440	
2187	32656	25156	31572	35388	
2188	32624	25176	31568	35392	
2189	32624	25144	31596	35376	
2190	32688	25152	31572	35404	
2191	32672	25216	31564	35408	
2192	32704	25188	31564	35408	
2193	32768	25212	31576	35408	
2194	32800	25252	31548	35424	
2195	32752	25276	31540	35420	
2196	32752	25236	31528	35448	
2197	32784	25244	31524	35468	
2198	32848	25244	31564	35444	
2199	32864	25216	31556	35480	
2200	32848	25212	31572	35464	
2201	32880	25208	31608	35504	
2202	32912	25200	31644	35524	
2203	32928	25188	31620	35528	
2204	32944	25224	31640	35544	
2205	32912	25228	31620	35568	
2206	32912	25244	31652	35524	
2207	32960	25248	31600	35540	
2208	32960	25224	31648	35552	
2209	32944	25252	31616	35580	
2210	32992	25240	31620	35564	
2211	33040	25220	31600	35536	
2212	33088	25216	31596	35560	
2213	33136	25228	31592	35504	
2214	33152	25220	31596	35536	
2215	33008	25220	31572	35516	
2216	33008	25216	31632	35516	
2217	33008	25184	31604	35476	
2218	33024	25152	31596	35552	
2219	32976	25196	31624	35480	
2220	32976	25224	31616	35492	
2221	33056	25204	31600	35516	
2222	33024	25208	31596	35504	
2223	33088	25180	31608	35492	
2224	33104	25184	31580	35500	
2225	33040	25192	31612	35496	
2226	33040	25180	31596	35476	
2227	33040	25164	31572	35488	
2228	33008	25212	31580	35492	
2229	32944	25192	31576	35492	
2230	32928	25200	31596	35468	
2231	32960	25196	31568	35508	
2232	32976	25188	31584	35476	
2233	32944	25252	31580	35480	
2234	32896	25200	31576	35496	
2235	32784	25220	31556	35484	
2236	32768	25220	31604	35488	
2237	32784	25216	31576	35500	
2238	32736	25200	31568	35516	
2239	32672	25248	31568	35496	
2240	32704	25208	31576	35480	
2241	32736	25192	31596	35488	
2242	32768	25232	31584	35496	
2243	32800	25200	31592	35484	
2244	32752	25192	31576	35472	
2245	32608	25196	31576	35476	
2246	32432	25156	31564	35496	
2247	32256	25188	31584	35488	
2248	32064	25188	31580	35508	
2249	31888	25192	31572	35492	
2250	31872	25220	31564	35508	
2251	31728	25184	31552	35508	
2252	31712	25240	31564	35468	
2253	31680	25216	31564	35460	
2254	31600	25224	31540	35448	
2255	31536	25224	31596	35448	
2256	31504	25220	31592	35464	
2257	31424	25192	31560	35436	
2258	31376	25244	31560	35468	
2259	31472	25164	31564	35488	
2260	31776	25196	31592	35464	
2261	31840	25204	31612	35472	
2262	32048	25228	31588	35508	
2263	32240	25172	31572	35488	
2264	32256	25192	31580	35512	
2265	32416	25184	31604	35516	
2266	32432	25208	31604	35512	
2267	32464	25168	31636	35500	
2268	32560	25152	31620	35576	
2269	32624	25168	31604	35564	
2270	32720	25208	31572	35576	
2271	32880	25204	31576	35520	
2272	32912	25232	31604	35496	
2273	32960	25208	31600	35500	
2274	32976	25208	31584	35476	
2275	33008	25216	31588	35512	
2276	32912	25180	31576	35488	
2277	32928	25152	31560	35480	
2278	32896	25152	31560	35500	
2279	32896	25212	31556	35488	
2280	32832	25216	31536	35460	
2281	32768	25184	31536	35444	
2282	32784	25168	31540	35424	
2283	32720	25196	31544	35424	
2284	32784	25192	31540	35420	
2285	32928	25192	31516	35388	
2286	33168	25180	31512	35416	
2287	33392	25164	31496	35428	
2288	33152	25196	31484	35396	
2289	32592	25192	31504	35376	
2290	32224	25176	31492	35420	
2291	32544	25220	31500	35372	
2292	33136	25192	31520	35388	
2293	33680	25192	31536	35412	
2294	33664	25216	31548	35408	
2295	32944	25212	31540	35412	
2296	32496	25232	31540	35428	
2297	32848	25188	31556	35432	
2298	33008	25200	31592	35436	
2299	32720	25208	31592	35456	
2300	32368	25224	31588	35472	
2301	32400	25196	31604	35476	
2302	33296	25104	31652	35576	
2303	34336	25112	31684	35696	
2304	35488	25156	31688	35764	
2305	37792	25296	31688	35600	
2306	39408	25296	31676	35548	
2307	39840	25312	31684	35496	
2308	39456	25324	31672	35440	
2309	38512	25280	31588	35372	
2310	37424	25252	31544	35356	
2311	36192	25220	31508	35368	
2312	35088	25184	31464	35304	
2313	34000	25164	31392	35196	
2314	33168	25180	31372	35156	
2315	32464	25248	31388	35080	
2316	31808	25252	31408	35108	
2317	31312	25156	31444	35240	
2318	30912	25252	31452	35328	
2319	30560	25284	31468	35380	
2320	30400	25312	31484	35464	
2321	30416	25300	31560	35552	
2322	30352	25256	31644	35548	
2323	30336	25236	31680	35532	
2324	30352	25260	31680	35592	
2325	30400	25268	31656	35612	
2326	30304	25304	31640	35620	
2327	30336	25248	31624	35584	
2328	30416	25196	31624	35556	
2329	30400	25204	31640	35500	
2330	30496	25132	31616	35452	
2331	30624	25072	31668	35504	
2332	30624	25076	31536	35544	
2333	30640	25168	31480	35428	
2334	30656	25260	31440	35336	
2335	30768	25216	31420	35328	
2336	30848	25208	31416	35308	
2337	30832	25160	31416	35288	
2338	30832	25084	31460	35244	
2339	30848	25052	31472	35264	
2340	30896	25060	31484	35304	
2341	30784	25092	31476	35316	
2342	30832	25132	31476	35292	
2343	30912	25184	31500	35320	
2344	30928	25188	31508	35340	
2345	30928	25264	31496	35296	
2346	30864	25240	31496	35324	
2347	30880	25276	31488	35344	
2348	30864	25284	31504	35372	
2349	30800	25296	31492	35332	
2350	30848	25308	31484	35348	
2351	30880	25316	31428	35400	
2352	30960	25304	31464	35364	
2353	30928	25296	31472	35380	
2354	31024	25272	31468	35408	
2355	31040	25288	31484	35428	
2356	31040	25252	31496	35428	
2357	31024	25252	31484	35448	
2358	30912	25244	31500	35428	
2359	30928	25264	31528	35468	
2360	30928	25272	31532	35500	
2361	30880	25232	31512	35504	
2362	30912	25228	31544	35496	
2363	30864	25220	31496	35532	
2364	30864	25176	31516	35520	
2365	30912	25236	31512	35532	
2366	30944	25192	31512	35520	
2367	30896	25164	31468	35500	
2368	30928	25176	31500	35496	
2369	30832	25132	31452	35464	
2370	30832	25148	31488	35452	
2371	30928	25152	31460	35444	
2372	30912	25148	31464	35412	
2373	30976	25164	31428	35412	
2374	30992	25128	31420	35408	
2375	31136	25164	31448	35400	
2376	31232	25176	31444	35384	
2377	31328	25160	31424	35416	
2378	31328	25184	31428	35420	
2379	31360	25156	31452	35420	
2380	31408	25192	31444	35432	
2381	31616	25176	31452	35392	
2382	31712	25204	31464	35428	
2383	31856	25180	31476	35420	
2384	32000	25196	31460	35376	
2385	32016	25224	31456	35420	
2386	32176	25228	31472	35436	
2387	32240	25252	31480	35452	
2388	32288	25232	31488	35408	
2389	32288	25248	31524	35444	
2390	32208	25224	31508	35464	
2391	32096	25228	31524	35396	
2392	32096	25220	31528	35452	
2393	32112	25252	31508	35468	
2394	32192	25256	31496	35468	
2395	32256	25204	31508	35420	
2396	32240	25224	31496	35420	
2397	32176	25196	31520	35456	
2398	32128	25200	31504	35472	
2399	32208	25156	31512	35472	
2400	32240	25164	31496	35484	
2401	32208	25168	31516	35464	
2402	32336	25184	31496	35460	
2403	32352	25156	31504	35508	
2404	32416	25180	31504	35516	
2405	32512	25180	31524	35484	
2406	32512	25180	31488	35432	
2407	32640	25156	31472	35432	
2408	32752	25172	31464	35352	
2409	32768	25188	31468	35340	
2410	32800	25208	31492	35344	
2411	32880	25168	31496	35412	
2412	32896	25176	31504	35388	
2413	32912	25204	31528	35444	
2414	32928	25284	31504	35456	
2415	32880	25212	31504	35488	
2416	32848	25208	31524	35508	
2417	32912	25196	31504	35544	
2418	32864	25240	31492	35568	
2419	32816	25224	31492	35516	
2420	32848	25180	31468	35524	
2421	32848	25200	31476	35480	
2422	32832	25220	31456	35464	
2423	32864	25208	31464	35500	
2424	32752	25160	31436	35428	
2425	32688	25204	31472	35428	
2426	32672	25204	31476	35416	
2427	32624	25160	31468	35428	
2428	32736	25180	31508	35408	
2429	32720	25216	31464	35420	
2430	32752	25220	31500	35396	
2431	32768	25272	31488	35400	
2432	32704	25244	31480	35436	
2433	32800	25252	31476	35464	
2434	32768	25212	31508	35484	
2435	32784	25276	31508	35460	
2436	32800	25252	31500	35484	
2437	32768	25240	31480	35468	
2438	32752	25212	31532	35492	
2439	32832	25184	31516	35468	
2440	32832	25208	31528	35480	
2441	32848	25188	31524	35460	
2442	32896	25216	31524	35448	
2443	32960	25228	31500	35460	
2444	32992	25196	31508	35448	
2445	32976	25204	31504	35476	
2446	32960	25224	31492	35468	
2447	33008	25184	31508	35512	
2448	33088	25200	31516	35500	
2449	33056	25224	31484	35520	
2450	33008	25236	31480	35508	
2451	32992	25200	31512	35524	
2452	33008	25212	31548	35544	
2453	32960	25216	31536	35568	
2454	32960	25172	31540	35524	
2455	32912	25188	31544	35568	
2456	32912	25192	31512	35560	
2457	32912	25240	31520	35568	
2458	32976	25180	31528	35584	
2459	33008	25236	31524	35564	
2460	32992	25220	31532	35536	
2461	32992	25212	31500	35496	
2462	32976	25252	31520	35504	
2463	32864	25252	31504	35504	
2464	32880	25204	31488	35464	
2465	32912	25264	31492	35440	
2466	32896	25264	31472	35468	
2467	32816	25248	31488	35464	
2468	32848	25252	31496	35432	
2469	32944	25244	31484	35424	
2470	32912	25256	31468	35432	
2471	32848	25248	31452	35444	
2472	32752	25288	31492	35468	
2473	32720	25304	31512	35476	
2474	32672	25244	31500	35480	
2475	32672	25212	31508	35496	
2476	32720	25212	31528	35500	
2477	32656	25292	31516	35484	
2478	32496	25200	31560	35492	
2479	32352	25236	31536	35500	
2480	32288	25216	31548	35540	
2481	32144	25232	31544	35492	
2482	32048	25212	31636	35440	
2483	31888	25220	31604	35416	
2484	31824	25248	31524	35460	
2485	31824	25236	31560	35488	
2486	31808	25240	31568	35492	
2487	31792	25276	31480	35536	
2488	31728	25332	31448	35540	
2489	31696	25332	31460	35532	
2490	31568	25240	31536	35548	
2491	31536	25168	31608	35436	
2492	31488	25216	31548	35404	
2493	31648	25288	31484	35424	
2494	31760	25252	31500	35456	
2495	31936	25264	31488	35516	
2496	32048	25240	31500	35512	
2497	32160	25224	31496	35492	
2498	32256	25204	31528	35484	
2499	32352	25232	31532	35484	
2500	32464	25228	31544	35520	
2501	32464	25172	31564	35424	
2502	32480	25120	31660	35440	
2503	32592	25180	31608	35400	
2504	32704	25264	31520	35492	
2505	32768	25248	31496	35576	
2506	32864	25196	31528	35596	
2507	32960	25188	31576	35520	
2508	32928	25220	31576	35476	
2509	32960	25236	31520	35540	
2510	32896	25264	31504	35520	
2511	32896	25240	31532	35488	
2512	32848	25240	31488	35516	
2513	32864	25280	31484	35556	
2514	32752	25284	31484	35564	
2515	32800	25240	31496	35592	
2516	32736	25288	31500	35532	
2517	32752	25232	31516	35540	
2518	32784	25284	31532	35516	
2519	32960	25276	31540	35508	
2520	33232	25284	31492	35492	
2521	33216	25232	31520	35496	
2522	33024	25244	31508	35488	
2523	32512	25284	31504	35464	
2524	32992	25264	31512	35504	
2525	33872	25248	31492	35488	
2526	34704	25244	31620	35384	
2527	35152	25272	31544	35412	
2528	34544	25276	31456	35504	
2529	33392	25264	31456	35584	
2530	33152	25284	31416	35648	
2531	33184	25256	31468	35684	
2532	32992	25300	31504	35672	
2533	32528	25280	31524	35628	
2534	32096	25240	31560	35624	
2535	32256	25180	31672	35576	
2536	33360	25148	31668	35588	
2537	34272	25176	31664	35568	
2538	36032	25208	31648	35628	
2539	38432	25196	31652	35672	
2540	39616	25248	31688	35648	
2541	39520	25240	31692	35644	
2542	38576	25236	31668	35636	
2543	37344	25260	31584	35616	
2544	36016	25268	31516	35644	
2545	34736	25312	31372	35620	
2546	33664	25328	31284	35512	
2547	32928	25312	31232	35388	
2548	32176	25276	31232	35312	
2549	31600	25272	31312	35236	
2550	31072	25284	31380	35244	
2551	30688	25296	31452	35252	
2552	30320	25336	31440	35348	
2553	30160	25348	31452	35476	
2554	30128	25368	31452	35560	
2555	30048	25368	31492	35616	
2556	30080	25356	31528	35636	
2557	30096	25388	31556	35644	
2558	30256	25376	31592	35664	
2559	30384	25320	31632	35700	
2560	30416	25252	31628	35728	
2561	30512	25216	31656	35740	
2562	30496	25228	31616	35636	
2563	30544	25208	31712	35524	
2564	30624	25216	31740	35464	
2565	30672	25204	31720	35480	
2566	30720	25268	31700	35476	
2567	30704	25212	31624	35504	
2568	30800	25216	31588	35508	
2569	30768	25240	31536	35580	
2570	30768	25244	31496	35604	
2571	30816	25268	31432	35588	
2572	30880	25228	31420	35588	
2573	30864	25164	31436	35576	
2574	30992	25160	31476	35508	
2575	30928	25180	31516	35444	
2576	30880	25128	31520	35416	
2577	30960	25200	31536	35360	
2578	30960	25252	31556	35296	
2579	30976	25272	31560	35312	
2580	31024	25328	31568	35312	
2581	31088	25360	31556	35328	
2582	31104	25364	31532	35344	
2583	31056	25380	31536	35400	
2584	31040	25372	31548	35444	
2585	30928	25372	31544	35464	
2586	30912	25380	31524	35496	
2587	30960	25360	31532	35516	
2588	30944	25340	31544	35552	
2589	30880	25344	31532	35560	
2590	30960	25340	31540	35568	
2591	30880	25324	31532	35564	
2592	30896	25300	31560	35560	
2593	30848	25280	31576	35588	
2594	30848	25232	31572	35628	
2595	30928	25316	31564	35544	
2596	30960	25344	31568	35528	
2597	30992	25200	31640	35536	
2598	30928	25172	31648	35628	
2599	30880	25156	31604	35604	
2600	30896	25180	31584	35644	
2601	30880	25168	31552	35664	
2602	30928	25160	31540	35692	
2603	30928	25192	31524	35688	
2604	30992	25180	31532	35656	
2605	31024	25196	31496	35696	
2606	31136	25280	31532	35604	
2607	31104	25296	31520	35536	
2608	31184	25252	31512	35508	
2609	31328	25260	31516	35524	
2610	31424	25252	31512	35512	
2611	31552	25252	31492	35480	
2612	31664	25248	31508	35500	
2613	31776	25228	31508	35472	
2614	31856	25260	31464	35512	
2615	31936	25288	31484	35480	
2616	31984	25292	31468	35532	
2617	32080	25292	31444	35532	
2618	32144	25268	31468	35568	
2619	32176	25300	31468	35568	
2620	32256	25260	31496	35580	
2621	32272	25264	31488	35532	
2622	32288	25224	31480	35592	
2623	32336	25288	31496	35576	
2624	32256	25244	31508	35564	
2625	32160	25264	31512	35608	
2626	32192	25208	31516	35580	
2627	32096	25260	31496	35584	
2628	32080	25228	31496	35576	
2629	32112	25236	31492	35560	
2630	32144	25256	31496	35552	
2631	32208	25296	31500	35584	
2632	32256	25220	31500	35600	
2633	32352	25308	31484	35600	
2634	32384	25232	31476	35596	
2635	32400	25244	31476	35588	
2636	32560	25232	31492	35564	
2637	32528	25248	31492	35568	
2638	32608	25252	31516	35572	
2639	32688	25228	31500	35600	
2640	32736	25240	31504	35544	
2641	32784	25212	31488	35556	
2642	32960	25216	31492	35528	
2643	33056	25176	31460	35488	
2644	33168	25248	31476	35432	
2645	33328	25244	31492	35428	
2646	33296	25244	31504	35460	
2647	33184	25228	31512	35520	
2648	33104	25224	31532	35528	
2649	33072	25204	31536	35592	
2650	33136	25188	31484	35568	
2651	33152	25236	31508	35628	
2652	33104	25256	31496	35600	
2653	33152	25220	31476	35596	
2654	33088	25196	31480	35620	
2655	33104	25268	31492	35568	
2656	33024	25248	31476	35580	
2657	33056	25200	31448	35568	
2658	33056	25228	31468	35520	
2659	33056	25260	31448	35484	
2660	33024	25364	31448	35416	
2661	32992	25320	31492	35392	
2662	32880	25284	31472	35404	
2663	32928	25236	31516	35420	
2664	32944	25236	31504	35452	
2665	32944	25220	31528	35500	
2666	32976	25188	31500	35568	
2667	32992	25208	31516	35600	
2668	32944	25244	31504	35656	
2669	32976	25280	31520	35636	
2670	32944	25312	31496	35576	
2671	32976	25272	31532	35564	
2672	32992	25328	31504	35496	
2673	33040	25284	31512	35504	
2674	33088	25268	31504	35524	
2675	33104	25244	31508	35512	
2676	33168	25296	31504	35544	
2677	33168	25252	31516	35572	
2678	33152	25248	31488	35552	
2679	33232	25288	31504	35564	
2680	33232	25296	31512	35556	
2681	33280	25316	31480	35548	
2682	33248	25304	31476	35548	
2683	33136	25304	31496	35592	
2684	33152	25316	31488	35540	
2685	33136	25312	31488	35580	
2686	33136	25332	31480	35604	
2687	33216	25280	31496	35576	
2688	33200	25272	31488	35552	
2689	33168	25280	31484	35576	
2690	33136	25264	31496	35588	
2691	33120	25224	31528	35584	
2692	33072	25276	31500	35560	
2693	33088	25256	31496	35564	
2694	33072	25256	31496	35568	
2695	32960	25256	31480	35540	
2696	32912	25240	31524	35580	
2697	32992	25236	31476	35536	
2698	32944	25244	31492	35528	
2699	32992	25264	31492	35548	
2700	32912	25252	31504	35552	
2701	32880	25236	31528	35524	
2702	32896	25244	31496	35536	
2703	32896	25204	31484	35556	
2704	32960	25256	31504	35576	
2705	33104	25228	31492	35568	
2706	33056	25224	31488	35520	
2707	32944	25212	31516	35556	
2708	32752	25224	31492	35588	
2709	32560	25188	31476	35576	
2710	32384	25216	31520	35544	
2711	32256	25240	31508	35584	
2712	32096	25184	31504	35544	
2713	31984	25224	31508	35560	
2714	32000	25236	31480	35568	
2715	32032	25220	31496	35580	
2716	32032	25216	31504	35556	
2717	31904	25220	31496	35536	
2718	31792	25216	31508	35568	
2719	31712	25232	31520	35564	
2720	31632	25196	31512	35580	
2721	31584	25196	31508	35600	
2722	31760	25208	31464	35588	
2723	31984	25200	31524	35564	
2724	32080	25212	31480	35588	
2725	32192	25224	31500	35596	
2726	32336	25232	31488	35572	
2727	32464	25220	31504	35584	
2728	32560	25204	31500	35544	
2729	32528	25264	31492	35540	
2730	32528	25256	31488	35596	
2731	32608	25224	31484	35568	
2732	32752	25244	31484	35568	
2733	32848	25252	31480	35556	
2734	32992	25232	31516	35604	
2735	33056	25260	31496	35576	
2736	33056	25236	31520	35580	
2737	33088	25232	31484	35548	
2738	33024	25216	31500	35556	
2739	33104	25252	31484	35552	
2740	33072	25264	31464	35576	
2741	33120	25252	31480	35560	
2742	33040	25248	31500	35572	
2743	32960	25228	31472	35576	
2744	32960	25220	31484	35576	
2745	32944	25252	31464	35532	
2746	32896	25268	31480	35564	
2747	33008	25292	31488	35572	
2748	33184	25252	31460	35552	
2749	33552	25248	31500	35544	
2750	33696	25284	31484	35504	
2751	33568	25236	31496	35508	
2752	33120	25252	31516	35484	
2753	33520	25212	31484	35472	
2754	34128	25244	31492	35488	
2755	34560	25212	31500	35524	
2756	34768	25224	31512	35516	
2757	33920	25236	31504	35544	
2758	32448	25260	31508	35560	
2759	32112	25284	31508	35536	
2760	32032	25232	31520	35548	
2761	31904	25212	31516	35552	
2762	31536	25224	31516	35548	
2763	31136	25212	31552	35568	
2764	31456	25208	31544	35624	
2765	32704	25252	31548	35556	
2766	33952	25180	31568	35620	
2767	35856	25188	31584	35660	
2768	38448	25180	31624	35672	
2769	39728	25244	31656	35692	
2770	39648	25232	31720	35708	
2771	38992	25272	31704	35624	
2772	37744	25232	31652	35596	
2773	36528	25184	31600	35548	
2774	35344	25188	31536	35532	
2775	34336	25140	31424	35440	
2776	33520	25140	31348	35364	
2777	32752	25116	31320	35292	
2778	32112	25140	31316	35212	
2779	31648	25184	31352	35188	
2780	31312	25244	31400	35160	
2781	30944	25284	31392	35236	
2782	30752	25336	31380	35316	
2783	30704	25328	31388	35444	
2784	30560	25408	31436	35468	
2785	30512	25364	31484	35484	
2786	30576	25360	31548	35512	
2787	30560	25356	31616	35516	
2788	30576	25360	31652	35580	
2789	30592	25356	31648	35588	
2790	30688	25360	31652	35608	
2791	30656	25316	31652	35632	
2792	30640	25276	31660	35624	
2793	30720	25336	31648	35600	
2794	30816	25292	31652	35596	
2795	30912	25296	31644	35552	
2796	30912	25232	31588	35544	
2797	30960	25200	31568	35572	
2798	31024	25156	31512	35572	
2799	30992	25144	31500	35512	
2800	30960	25132	31476	35516	
2801	30912	25132	31476	35468	
2802	30896	25144	31484	35420	
2803	30928	25148	31516	35388	
2804	30912	25160	31536	35380	
2805	30960	25132	31516	35328	
2806	30960	25208	31528	35312	
2807	30992	25232	31520	35360	
2808	31008	25252	31520	35328	
2809	31040	25296	31504	35360	
2810	31072	25320	31528	35368	
2811	31136	25348	31528	35376	
2812	31136	25344	31544	35392	
2813	31200	25348	31552	35428	
2814	31152	25352	31568	35472	
2815	31184	25336	31536	35488	
2816	31168	25252	31560	35528	
2817	31152	25300	31564	35528	
2818	31168	25276	31520	35584	
2819	31184	25272	31552	35596	
2820	31120	25252	31572	35624	
2821	31056	25220	31564	35668	
2822	30976	25220	31592	35644	
2823	30928	25244	31584	35636	
2824	30960	25212	31612	35652	
2825	30944	25196	31584	35696	
2826	30944	25196	31592	35648	
2827	30992	25236	31560	35632	
2828	31024	25184	31560	35620	
2829	30928	25148	31540	35620	
2830	30864	25172	31524	35568	
2831	30960	25212	31520	35576	
2832	31040	25196	31500	35544	
2833	31056	25224	31492	35572	
2834	31136	25260	31500	35536	
2835	31120	25244	31484	35528	
2836	31168	25260	31472	35496	
2837	31312	25248	31484	35500	
2838	31408	25288	31524	35480	
2839	31392	25284	31448	35512	
2840	31440	25260	31492	35516	
2841	31584	25248	31496	35480	
2842	31680	25256	31484	35476	
2843	31728	25260	31524	35484	
2844	31744	25260	31528	35476	
2845	31904	25228	31536	35496	
2846	31904	25244	31556	35552	
2847	31872	25284	31572	35552	
2848	31936	25324	31568	35580	
2849	31952	25272	31556	35580	
2850	31936	25300	31600	35620	
2851	31888	25304	31592	35632	
2852	31936	25296	31572	35588	
2853	31888	25240	31568	35624	
2854	31840	25268	31560	35644	
2855	31808	25260	31556	35612	
2856	31776	25252	31536	35636	
2857	31840	25276	31548	35612	
2858	31824	25248	31548	35568	
2859	31888	25284	31552	35596	
2860	31968	25248	31496	35560	
2861	32032	25296	31496	35580	
2862	32112	25268	31516	35580	
2863	32240	25296	31504	35544	
2864	32256	25272	31532	35600	
2865	32304	25264	31496	35580	
2866	32448	25296	31520	35580	
2867	32576	25232	31512	35568	
2868	32752	25212	31488	35572	
2869	32832	25200	31512	35512	
2870	32976	25204	31536	35480	
2871	33024	25220	31520	35440	
2872	33056	25196	31516	35416	
2873	33088	25228	31556	35432	
2874	33088	25236	31564	35504	
2875	33152	25216	31576	35456	
2876	33152	25220	31592	35524	
2877	33136	25264	31564	35568	
2878	33232	25216	31556	35600	
2879	33216	25240	31552	35616	
2880	33184	25256	31532	35648	
2881	33120	25248	31552	35564	
2882	33088	25244	31548	35536	
2883	33056	25248	31584	35472	
2884	33104	25216	31552	35520	
2885	33088	25208	31548	35488	
2886	33072	25252	31552	35488	
2887	33104	25244	31560	35508	
2888	32976	25232	31588	35524	
2889	32960	25196	31608	35516	
2890	33008	25224	31604	35516	
2891	33056	25220	31584	35528	
2892	33104	25240	31584	35548	
2893	33088	25160	31600	35580	
2894	33088	25188	31568	35588	
2895	33024	25208	31620	35552	
2896	33056	25240	31560	35568	
2897	33088	25212	31552	35576	
2898	33024	25188	31560	35556	
2899	33040	25220	31556	35608	
2900	33024	25220	31524	35608	
2901	32992	25212	31528	35600	
2902	32992	25212	31532	35592	
2903	33008	25200	31524	35620	
2904	32992	25220	31536	35628	
2905	33024	25240	31520	35640	
2906	33072	25248	31560	35660	
2907	33040	25228	31512	35652	
2908	33136	25268	31560	35612	
2909	33072	25288	31540	35632	
2910	33104	25336	31548	35608	
2911	33088	25312	31532	35616	
2912	33008	25324	31488	35628	
2913	32992	25308	31540	35616	
2914	33072	25316	31524	35596	
2915	33136	25308	31528	35576	
2916	33152	25252	31548	35576	
2917	33152	25288	31536	35580	
2918	33104	25264	31536	35552	
2919	33056	25284	31544	35556	
2920	33024	25280	31532	35568	
2921	33008	25276	31544	35548	
2922	33040	25252	31540	35532	
2923	33008	25256	31520	35572	
2924	32976	25292	31544	35556	
2925	32992	25284	31556	35548	
2926	33008	25300	31548	35552	
2927	32992	25308	31544	35520	
2928	33040	25272	31544	35568	
2929	32896	25316	31524	35516	
2930	32960	25284	31540	35556	
2931	32944	25324	31536	35520	
2932	32880	25324	31556	35508	
2933	32880	25332	31580	35576	
2934	32928	25308	31532	35544	
2935	32944	25268	31548	35528	
2936	32928	25292	31564	35560	
2937	32912	25300	31548	35544	
2938	32816	25264	31544	35532	
2939	32720	25312	31572	35552	
2940	32528	25264	31552	35520	
2941	32352	25236	31536	35520	
2942	32192	25296	31528	35540	
2943	32112	25264	31520	35524	
2944	32048	25256	31560	35520	
2945	31984	25244	31532	35532	
2946	32080	25244	31520	35536	
2947	31984	25276	31540	35544	
2948	31824	25260	31556	35560	
2949	31744	25232	31548	35500	
2950	31664	25240	31548	35520	
2951	31632	25264	31524	35516	
2952	31648	25212	31532	35528	
2953	31792	25232	31508	35520	
2954	32000	25204	31500	35524	
2955	32192	25256	31552	35496	
2956	32320	25244	31552	35544	
2957	32384	25260	31532	35516	
2958	32400	25268	31524	35548	
2959	32544	25248	31536	35528	
2960	32560	25236	31524	35508	
2961	32656	25248	31552	35516	
2962	32816	25260	31536	35532	
2963	32912	25200	31528	35528	
2964	32992	25264	31556	35572	
2965	33056	25248	31544	35556	
2966	33040	25260	31552	35576	
2967	32992	25248	31536	35572	
2968	33008	25220	31540	35564	
2969	33008	25240	31532	35536	
2970	32992	25252	31564	35544	
2971	32960	25248	31544	35564	
2972	32912	25240	31524	35564	
2973	32864	25244	31536	35512	
2974	32800	25232	31520	35528	
2975	32688	25248	31528	35524	
2976	32672	25248	31540	35504	
2977	32640	25188	31516	35520	
2978	32800	25196	31512	35504	
2979	33072	25204	31520	35488	
2980	33328	25220	31508	35516	
2981	33344	25244	31516	35484	
2982	32720	25196	31500	35488	
2983	32000	25220	31508	35484	
2984	31984	25228	31516	35508	
2985	32560	25236	31532	35496	
2986	33040	25212	31516	35508	
2987	33120	25228	31520	35528	
2988	32512	25232	31524	35540	
2989	31680	25260	31540	35524	
2990	31984	25196	31560	35544	
2991	32368	25188	31536	35580	
2992	32208	25232	31556	35548	
2993	32064	25256	31560	35564	
2994	32240	25264	31560	35544	
2995	33136	25212	31600	35560	
2996	34400	25212	31612	35596	
2997	35536	25232	31620	35596	
2998	37648	25176	31656	35656	
2999	39344	25192	31692	35680	
3000	40208	25244	31696	35656	
3001	39872	25240	31656	35600	
3002	39072	25220	31664	35544	
3003	38000	25220	31604	35528	
3004	36832	25188	31532	35604	
3005	35616	25152	31448	35520	
3006	34544	25152	31364	35476	
3007	33584	25128	31396	35424	
3008	32864	25144	31380	35368	
3009	32112	25144	31420	35292	
3010	31536	25176	31468	35264	
3011	31056	25248	31524	35240	
3012	30752	25248	31552	35308	
3013	30560	25312	31512	35372	
3014	30400	25372	31516	35472	
3015	30352	25336	31532	35468	
3016	30352	25320	31576	35532	
3017	30416	25320	31628	35532	
3018	30432	25320	31676	35628	
3019	30448	25340	31672	35636	
3020	30400	25340	31596	35596	
3021	30416	25388	31656	35620	
3022	30512	25352	31628	35512	
3023	30560	25304	31628	35524	
3024	30640	25296	31588	35492	
3025	30672	25220	31540	35476	
3026	30720	25180	31520	35532	
3027	30848	25172	31468	35464	
3028	30800	25216	31420	35436	
3029	30784	25224	31472	35408	
3030	30848	25204	31452	35400	
3031	30976	25192	31476	35392	
3032	31008	25196	31468	35404	
3033	30880	25176	31492	35448	
3034	30912	25168	31520	35436	
3035	30912	25184	31540	35476	
3036	30928	25156	31568	35428	
3037	31008	25204	31600	35432	
3038	31008	25232	31560	35420	
3039	31008	25256	31552	35472	
3040	31104	25240	31532	35480	
3041	31136	25284	31520	35516	
3042	31120	25336	31484	35500	
3043	31136	25312	31472	35488	
3044	31104	25336	31440	35540	
3045	31072	25304	31436	35492	
3046	31024	25280	31480	35512	
3047	31104	25284	31456	35532	
3048	31120	25252	31496	35492	
3049	31088	25264	31500	35492	
3050	31040	25220	31520	35520	
3051	31040	25184	31512	35516	
3052	31056	25212	31512	35508	
3053	31120	25244	31524	35528	
3054	31088	25268	31516	35532	
3055	31056	25204	31524	35584	
3056	31120	25212	31520	35560	
3057	31104	25188	31516	35604	
3058	31056	25232	31532	35576	
3059	31040	25256	31528	35536	
3060	31024	25240	31500	35560	
3061	30992	25228	31524	35532	
3062	30976	25236	31484	35492	
3063	30976	25248	31520	35532	
3064	30976	25244	31500	35508	
3065	30960	25244	31508	35504	
3066	31056	25252	31496	35488	
3067	31120	25248	31504	35520	
3068	31056	25268	31504	35516	
3069	31072	25280	31476	35508	
3070	31104	25268	31488	35520	
3071	31216	25272	31528	35504	
3072	31344	25256	31508	35516	
3073	31472	25260	31500	35528	
3074	31552	25288	31520	35508	
3075	31552	25236	31528	35544	
3076	31664	25232	31544	35572	
3077	31728	25188	31560	35576	
3078	31808	25188	31556	35568	
3079	31872	25176	31580	35564	
3080	31872	25188	31580	35604	
3081	31872	25172	31604	35604	
3082	31904	25164	31588	35600	
3083	31856	25160	31608	35616	
3084	31904	25180	31596	35612	
3085	31920	25144	31584	35616	
3086	31840	25156	31588	35632	
3087	31936	25156	31560	35632	
3088	31888	25168	31572	35588	
3089	31904	25136	31576	35636	
3090	31872	25152	31552	35636	
3091	31904	25152	31564	35592	
3092	31920	25128	31548	35592	
3093	31920	25144	31544	35564	
3094	32048	25192	31568	35528	
3095	32176	25156	31572	35556	
3096	32176	25148	31560	35520	
3097	32208	25156	31556	35476	
3098	32384	25152	31552	35460	
3099	32480	25184	31528	35432	
3100	32496	25188	31524	35372	
3101	32592	25188	31552	35396	
3102	32640	25248	31564	35476	
3103	32672	25204	31572	35536	
3104	32720	25224	31576	35520	
3105	32752	25272	31584	35536	
3106	32720	25240	31584	35588	
3107	32736	25236	31596	35648	
3108	32736	25208	31608	35632	
3109	32848	25244	31572	35636	
3110	32928	25220	31556	35588	
3111	32992	25224	31572	35600	
3112	32976	25228	31560	35576	
3113	33072	25200	31548	35524	
3114	33008	25224	31560	35504	
3115	33056	25244	31608	35532	
3116	32944	25256	31620	35520	
3117	32960	25220	31588	35488	
3118	32976	25256	31576	35500	
3119	32992	25216	31556	35536	
3120	32976	25280	31576	35496	
3121	32928	25268	31536	35496	
3122	33056	25228	31548	35496	
3123	33040	25264	31552	35572	
3124	32960	25264	31568	35568	
3125	32928	25268	31580	35604	
3126	32976	25256	31592	35632	
3127	32944	25268	31596	35688	
3128	32960	25248	31576	35640	
3129	32944	25232	31624	35684	
3130	32912	25256	31628	35660	
3131	32944	25264	31668	35664	
3132	32944	25260	31644	35676	
3133	32912	25232	31632	35668	
3134	32960	25232	31652	35692	
3135	32992	25216	31628	35652	
3136	32944	25208	31624	35628	
3137	32992	25224	31584	35656	
3138	33056	25236	31592	35628	
3139	33040	25212	31568	35648	
3140	33088	25244	31584	35604	
3141	33136	25264	31592	35592	
3142	33184	25240	31568	35612	
3143	33184	25240	31560	35584	
3144	33184	25256	31544	35580	
3145	33200	25276	31584	35584	
3146	33136	25284	31564	35536	
3147	33168	25252	31560	35560	
3148	33136	25272	31560	35572	
3149	33168	25284	31568	35560	
3150	33168	25280	31568	35552	
3151	33136	25284	31548	35572	
3152	33152	25256	31560	35540	
3153	33104	25308	31576	35528	
3154	33120	25260	31568	35556	
3155	33152	25312	31572	35528	
3156	33136	25292	31584	35536	
3157	33120	25280	31588	35520	
3158	32992	25304	31616	35572	
3159	32944	25320	31628	35572	
3160	32880	25288	31632	35544	
3161	32864	25292	31612	35588	
3162	32784	25320	31636	35568	
3163	32832	25296	31612	35584	
3164	32896	25300	31640	35576	
3165	32928	25296	31652	35548	
3166	32784	25328	31636	35572	
3167	32720	25320	31640	35596	
3168	32544	25308	31628	35592	
3169	32432	25328	31616	35600	
3170	32304	25340	31608	35576	
3171	32128	25320	31656	35596	
3172	31936	25320	31576	35624	
3173	31808	25300	31604	35640	
3174	31776	25308	31616	35640	
3175	31872	25296	31616	35584	
3176	31776	25320	31568	35584	
3177	31728	25312	31568	35588	
3178	31696	25272	31532	35604	
3179	31616	25288	31556	35596	
3180	31520	25324	31548	35600	
3181	31600	25300	31536	35584	
3182	31760	25316	31516	35600	
3183	31808	25316	31508	35580	
3184	31904	25348	31536	35616	
3185	32112	25316	31540	35608	
3186	32176	25336	31508	35628	
3187	32224	25304	31484	35600	
3188	32368	25316	31528	35584	
3189	32496	25352	31512	35624	
3190	32560	25336	31496	35636	
3191	32672	25328	31496	35648	
3192	32816	25324	31504	35648	
3193	32944	25308	31512	35696	
3194	32976	25328	31508	35656	
3195	32992	25308	31512	35656	
3196	32944	25300	31528	35640	
3197	32928	25296	31528	35644	
3198	32912	25304	31512	35680	
3199	32960	25292	31508	35636	
3200	32976	25304	31532	35660	
3201	32864	25336	31520	35608	
3202	32832	25328	31540	35604	
3203	32848	25332	31540	35620	
3204	32784	25324	31520	35596	
3205	32784	25316	31496	35636	
3206	32800	25332	31512	35616	
3207	32848	25348	31548	35604	
3208	32928	25276	31536	35588	
3209	32976	25316	31560	35596	
3210	32800	25316	31532	35592	
3211	32144	25280	31548	35548	
3212	31344	25340	31524	35572	
3213	31328	25312	31548	35560	
3214	32320	25328	31544	35556	
3215	33328	25288	31548	35572	
3216	33904	25348	31552	35580	
3217	33968	25308	31564	35576	
3218	33584	25352	31556	35600	
3219	34000	25320	31564	35596	
3220	34496	25328	31576	35572	
3221	34336	25328	31564	35572	
3222	34256	25324	31560	35616	
3223	34416	25340	31572	35568	
3224	35104	25344	31616	35616	
3225	35888	25340	31608	35628	
3226	36544	25356	31620	35632	
3227	38032	25364	31648	35620	
3228	39584	25364	31624	35656	
3229	40160	25316	31604	35688	
3230	39776	25256	31556	35736	
3231	38880	25212	31516	35760	
3232	37680	25212	31436	35752	
3233	36384	25208	31432	35640	
3234	35152	25216	31424	35456	
3235	34064	25176	31424	35360	
3236	33088	25220	31468	35280	
3237	32368	25216	31528	35252	
3238	31648	25300	31504	35312	
3239	30992	25300	31516	35368	
3240	30368	25304	31524	35492	
3241	29856	25336	31484	35580	
3242	29648	25328	31484	35604	
3243	29472	25340	31552	35628	
3244	29392	25368	31636	35648	
3245	29424	25372	31656	35640	
3246	29424	25380	31672	35676	
3247	29424	25372	31656	35684	
3248	29440	25380	31656	35788	
3249	29504	25368	31684	35760	
3250	29536	25432	31652	35744	
3251	29600	25424	31632	35648	
3252	29744	25424	31604	35552	
3253	29872	25412	31548	35524	
3254	29968	25380	31476	35448	
3255	30032	25292	31452	35392	
3256	30032	25260	31408	35412	
3257	30096	25216	31412	35388	
3258	30160	25208	31392	35384	
3259	30208	25204	31408	35360	
3260	30320	25204	31452	35356	
3261	30352	25224	31452	35348	
3262	30416	25236	31496	35392	
3263	30352	25244	31528	35412	
3264	30384	25288	31556	35428	
3265	30352	25296	31560	35432	
3266	30416	25284	31576	35500	
3267	30528	25348	31600	35516	
3268	30544	25356	31556	35556	
3269	30480	25376	31564	35612	
3270	30464	25348	31500	35596	
3271	30432	25364	31488	35628	
3272	30560	25332	31484	35616	
3273	30672	25344	31488	35596	
3274	30672	25328	31476	35600	
3275	30720	25260	31484	35528	
3276	30688	25280	31504	35576	
3277	30752	25280	31524	35532	
3278	30768	25256	31512	35576	
3279	30752	25216	31536	35584	
3280	30752	25288	31544	35584	
3281	30720	25228	31520	35608	
3282	30672	25252	31556	35616	
3283	30720	25272	31560	35608	
3284	30672	25236	31556	35640	
3285	30640	25232	31560	35664	
3286	30608	25280	31548	35612	
3287	30592	25240	31520	35636	
3288	30544	25276	31556	35576	
3289	30560	25272	31568	35556	
3290	30528	25236	31540	35536	
3291	30528	25236	31548	35536	
3292	30496	25312	31548	35500	
3293	30592	25280	31512	35504	
3294	30640	25280	31520	35524	
3295	30656	25264	31544	35508	
3296	30768	25232	31520	35536	
3297	30880	25244	31532	35520	
3298	30960	25224	31520	35496	
3299	30976	25204	31536	35500	
3300	31136	25260	31504	35488	
3301	31136	25272	31504	35508	
3302	31216	25224	31488	35500	
3303	31360	25228	31528	35520	
3304	31504	25236	31524	35536	
3305	31664	25240	31512	35568	
3306	31776	25276	31520	35564	
3307	31840	25252	31536	35556	
3308	31904	25276	31536	35592	
3309	31840	25252	31524	35576	
3310	31888	25208	31544	35612	
3311	31920	25236	31552	35596	
3312	31968	25236	31528	35624	
3313	32016	25224	31520	35600	
3314	32144	25212	31548	35592	
3315	32128	25224	31552	35588	
3316	32080	25188	31524	35596	
3317	32160	25220	31512	35584	
3318	32176	25200	31516	35560	
3319	32160	25212	31524	35536	
3320	32208	25200	31520	35552	
3321	32224	25228	31536	35532	
3322	32272	25240	31508	35532	
3323	32256	25240	31556	35532	
3324	32368	25244	31544	35528	
3325	32480	25188	31524	35576	
3326	32592	25232	31508	35536	
3327	32592	25200	31496	35512	
3328	32704	25204	31500	35504	
3329	32752	25188	31500	35476	
3330	32896	25180	31472	35420	
3331	32944	25172	31484	35372	
3332	33024	25200	31500	35448	
3333	32976	25224	31528	35484	
3334	33088	25224	31500	35548	
3335	33024	25264	31556	35552	
3336	32960	25292	31572	35588	
3337	32976	25248	31540	35612	
3338	32960	25268	31548	35616	
3339	32960	25276	31524	35668	
3340	32992	25284	31536	35648	
3341	33040	25292	31532	35576	
3342	32976	25284	31536	35552	
3343	32976	25300	31520	35496	
3344	32976	25224	31512	35440	
3345	32960	25212	31524	35436	
3346	33008	25224	31528	35428	
3347	33056	25236	31536	35368	
3348	33056	25212	31524	35404	
3349	33056	25248	31528	35408	
3350	33024	25276	31528	35408	
3351	32960	25224	31500	35432	
3352	32912	25236	31520	35440	
3353	32928	25192	31524	35476	
3354	32848	25244	31524	35456	
3355	32848	25304	31568	35476	
3356	32800	25268	31544	35488	
3357	32800	25280	31560	35544	
3358	32800	25256	31568	35540	
3359	32832	25236	31556	35560	
3360	32832	25268	31576	35560	
3361	32928	25236	31552	35560	
3362	32992	25224	31544	35552	
3363	33024	25280	31556	35508	
3364	33072	25208	31552	35524	
3365	33072	25204	31552	35580	
3366	33056	25220	31556	35552	
3367	32992	25216	31560	35528	
3368	33008	25196	31548	35556	
3369	33072	25216	31548	35560	
3370	33088	25212	31544	35568	
3371	33152	25192	31520	35564	
3372	33184	25188	31524	35580	
3373	33120	25220	31516	35568	
3374	33152	25224	31512	35572	
3375	33152	25252	31528	35576	
3376	33136	25208	31520	35520	
3377	33120	25236	31508	35508	
3378	33088	25172	31512	35528	
3379	33040	25176	31504	35508	
3380	33072	25192	31520	35520	
3381	33072	25200	31516	35512	
3382	33072	25184	31512	35504	
3383	32992	25196	31500	35480	
3384	32992	25208	31500	35496	
3385	32992	25200	31504	35464	
3386	32992	25220	31488	35548	
3387	32896	25212	31508	35520	
3388	32912	25240	31504	35516	
3389	32880	25252	31520	35520	
3390	32880	25256	31540	35512	
3391	32832	25288	31544	35504	
3392	32832	25252	31516	35504	
3393	32784	25284	31560	35516	
3394	32880	25288	31556	35516	
3395	32864	25284	31552	35492	
3396	32912	25268	31524	35464	
3397	32848	25228	31528	35516	
3398	32784	25256	31540	35488	
3399	32704	25296	31552	35520	
3400	32592	25252	31540	35500	
3401	32464	25240	31548	35524	
3402	32336	25292	31540	35496	
3403	32176	25264	31544	35532	
3404	32016	25272	31532	35460	
3405	31952	25272	31504	35476	
3406	31840	25300	31504	35464	
3407	31920	25232	31504	35480	
3408	31840	25276	31548	35444	
3409	31776	25256	31524	35460	
3410	31664	25244	31524	35452	
3411	31600	25236	31516	35476	
3412	31552	25240	31524	35468	
3413	31616	25268	31504	35512	
3414	31728	25208	31512	35492	
3415	31872	25240	31524	35456	
3416	31952	25248	31524	35488	
3417	32160	25248	31500	35488	
3418	32288	25236	31508	35472	
3419	32400	25212	31540	35516	
3420	32480	25192	31532	35552	
3421	32576	25212	31512	35516	
3422	32608	25232	31512	35544	
3423	32720	25216	31508	35548	
3424	32816	25236	31552	35552	
3425	32976	25216	31540	35536	
3426	33024	25200	31504	35568	
3427	33072	25212	31520	35544	
3428	33040	25200	31528	35516	
3429	33024	25204	31536	35536	
3430	32960	25208	31552	35492	
3431	33008	25204	31516	35520	
3432	32976	25240	31532	35492	
3433	32896	25224	31508	35476	
3434	32848	25196	31492	35488	
3435	32848	25220	31512	35432	
3436	32832	25180	31508	35524	
3437	32768	25204	31524	35480	
3438	32720	25216	31516	35456	
3439	32736	25196	31488	35408	
3440	32880	25252	31496	35448	
3441	33008	25228	31492	35452	
3442	32896	25240	31500	35420	
3443	32368	25232	31496	35396	
3444	31808	25276	31520	35396	
3445	32240	25272	31496	35384	
3446	33376	25308	31492	35400	
3447	34400	25244	31488	35380	
3448	35104	25260	31512	35436	
3449	34928	25212	31504	35468	
3450	34304	25192	31496	35424	
3451	34464	25248	31512	35432	
3452	34784	25276	31548	35476	
3453	34576	25216	31524	35500	
3454	34144	25256	31540	35508	
3455	33920	25260	31552	35540	
3456	34224	25276	31568	35536	
3457	35104	25248	31596	35576	
3458	35664	25248	31628	35580	
3459	37024	25228	31640	35564	
3460	38992	25252	31636	35532	
3461	39872	25224	31568	35544	
3462	39504	25216	31560	35584	
3463	38688	25168	31488	35604	
3464	37504	25152	31408	35576	
3465	36192	25136	31396	35464	
3466	34912	25140	31368	35352	
3467	33792	25124	31356	35228	
3468	32928	25116	31388	35156	
3469	32128	25192	31380	35108	
3470	31472	25184	31408	35164	
3471	30816	25204	31420	35252	
3472	30336	25224	31440	35332	
3473	29952	25244	31460	35440	
3474	29808	25272	31448	35512	
3475	29680	25332	31508	35524	
3476	29664	25336	31596	35528	
3477	29664	25312	31644	35540	
3478	29648	25352	31628	35632	
3479	29760	25316	31632	35652	
3480	29744	25340	31584	35660	
3481	29808	25320	31624	35644	
3482	29856	25304	31588	35596	
3483	29984	25260	31668	35536	
3484	30048	25228	31616	35472	
3485	30224	25260	31564	35464	
3486	30256	25212	31512	35444	
3487	30288	25176	31428	35400	
3488	30288	25172	31412	35420	
3489	30320	25132	31380	35428	
3490	30448	25112	31396	35332	
3491	30464	25080	31408	35340	
3492	30608	25064	31440	35308	
3493	30576	25052	31420	35300	
3494	30608	25088	31448	35292	
3495	30592	25112	31468	35268	
3496	30624	25140	31464	35296	
3497	30704	25172	31496	35272	
3498	30688	25160	31472	35316	
3499	30640	25224	31504	35324	
3500	30688	25284	31480	35352	
3501	30784	25320	31504	35384	
3502	30704	25324	31504	35384	
3503	30688	25328	31468	35376	
3504	30688	25304	31456	35412	
3505	30768	25328	31452	35444	
3506	30784	25276	31444	35464	
3507	30736	25264	31460	35448	
3508	30736	25288	31448	35484	
3509	30704	25248	31444	35504	
3510	30720	25232	31488	35500	
3511	30672	25220	31488	35488	
3512	30688	25248	31496	35492	
3513	30672	25208	31484	35472	
3514	30640	25200	31536	35496	
3515	30576	25196	31508	35504	
3516	30576	25180	31536	35476	
3517	30512	25188	31516	35476	
3518	30496	25200	31500	35452	
3519	30448	25192	31500	35488	
3520	30352	25200	31480	35468	
3521	30368	25188	31476	35440	
3522	30352	25220	31452	35444	
3523	30384	25188	31460	35424	
3524	30448	25192	31460	35384	
3525	30480	25184	31464	35380	
3526	30496	25216	31444	35360	
3527	30576	25212	31448	35352	
3528	30656	25212	31472	35360	
3529	30688	25208	31456	35316	
3530	30720	25232	31456	35344	
3531	30880	25240	31428	35336	
3532	30976	25268	31472	35356	
3533	31120	25204	31456	35368	
3534	31248	25300	31476	35372	
3535	31296	25260	31456	35380	
3536	31392	25276	31456	35392	
3537	31440	25292	31484	35412	
3538	31504	25248	31496	35376	
3539	31648	25252	31496	35424	
3540	31744	25268	31508	35428	
3541	31792	25248	31492	35464	
3542	31824	25236	31516	35440	
3543	31872	25228	31508	35464	
3544	31872	25236	31476	35464	
3545	31920	25240	31504	35472	
3546	31968	25212	31480	35448	
3547	31920	25196	31496	35460	
3548	31984	25184	31476	35468	
3549	32032	25220	31468	35444	
3550	32048	25172	31476	35392	
3551	32096	25160	31504	35404	
3552	32160	25152	31456	35416	
3553	32272	25160	31460	35416	
3554	32368	25188	31464	35380	
3555	32512	25164	31480	35420	
3556	32656	25144	31476	35392	
3557	32688	25160	31452	35376	
3558	32768	25140	31452	35424	
3559	32880	25128	31460	35432	
3560	32976	25148	31456	35424	
3561	33120	25124	31456	35432	
3562	33296	25136	31440	35452	
3563	33344	25116	31448	35480	
3564	33328	25116	31436	35468	
3565	33376	25116	31476	35500	
3566	33392	25116	31456	35432	
3567	33488	25116	31436	35408	
3568	33408	25100	31468	35372	
3569	33408	25132	31476	35396	
3570	33360	25128	31480	35460	
3571	33360	25128	31496	35496	
3572	33392	25136	31512	35516	
3573	33344	25124	31492	35536	
3574	33376	25132	31500	35540	
3575	33344	25136	31500	35600	
3576	33296	25136	31464	35588	
3577	33264	25156	31460	35552	
3578	33232	25156	31476	35508	
3579	33120	25156	31464	35476	
3580	33136	25136	31452	35424	
3581	33120	25172	31448	35424	
3582	33056	25168	31488	35372	
3583	32992	25156	31480	35352	
3584	32992	25144	31480	35352	
3585	32928	25164	31484	35376	
3586	32896	25212	31532	35372	
3587	32880	25212	31492	35392	
3588	33008	25200	31520	35412	
3589	32896	25288	31500	35416	
3590	32992	25268	31532	35420	
3591	33024	25220	31500	35380	
3592	32992	25256	31496	35416	
3593	32992	25212	31540	35396	
3594	33072	25252	31500	35412	
3595	32976	25228	31468	35424	
3596	33040	25224	31536	35424	
3597	33040	25204	31512	35408	
3598	33040	25204	31520	35408	
3599	33024	25244	31540	35456	
3600	33056	25220	31520	35480	
3601	33104	25224	31524	35464	
3602	33104	25224	31516	35464	
3603	33072	25196	31516	35484	
3604	33040	25216	31528	35444	
3605	32992	25224	31488	35472	
3606	33072	25208	31516	35484	
3607	33088	25204	31516	35464	
3608	33040	25208	31508	35464	
3609	33008	25188	31488	35456	
3610	33056	25180	31492	35476	
3611	33152	25164	31500	35424	
3612	33184	25184	31492	35444	
3613	33216	25176	31476	35448	
3614	33104	25192	31476	35428	
3615	33072	25228	31484	35424	
3616	33104	25192	31476	35400	
3617	33072	25184	31456	35432	
3618	33056	25204	31460	35420	
3619	33056	25184	31468	35384	
3620	33008	25188	31460	35444	
3621	33008	25192	31452	35428	
3622	32944	25204	31456	35408	
3623	32944	25168	31464	35424	
3624	32992	25224	31436	35416	
3625	33024	25220	31492	35412	
3626	32960	25208	31460	35456	
3627	32928	25184	31484	35416	
3628	32848	25216	31464	35404	
3629	32784	25192	31488	35456	
3630	32752	25220	31484	35420	
3631	32768	25216	31472	35448	
3632	32768	25212	31496	35452	
3633	32784	25220	31484	35448	
3634	32800	25232	31492	35416	
3635	32720	25224	31464	35412	
3636	32736	25192	31500	35424	
3637	32704	25200	31472	35432	
3638	32704	25216	31472	35436	
3639	32672	25224	31488	35428	
3640	32592	25232	31512	35436	
3641	32624	25188	31460	35456	
3642	32656	25196	31484	35432	
3643	32608	25204	31448	35424	
3644	32640	25196	31492	35416	
3645	32528	25208	31468	35420	
3646	32496	25196	31476	35408	
3647	32496	25204	31472	35380	
3648	32496	25216	31464	35404	
3649	32480	25232	31460	35424	
3650	32512	25228	31508	35404	
3651	32496	25180	31484	35448	
3652	32528	25192	31480	35428	
3653	32688	25224	31468	35456	
3654	32672	25192	31468	35424	
3655	32560	25220	31468	35456	
3656	32432	25216	31476	35472	
3657	32224	25228	31472	35472	
3658	32032	25220	31448	35448	
3659	31920	25284	31484	35472	
3660	31792	25260	31472	35484	
3661	31712	25212	31460	35432	
3662	31632	25240	31464	35464	
3663	31664	25232	31468	35484	
3664	31616	25236	31484	35488	
3665	31616	25244	31468	35496	
3666	31584	25236	31488	35468	
3667	31584	25212	31496	35464	
3668	31536	25236	31476	35492	
3669	31536	25220	31484	35484	
3670	31632	25156	31472	35468	
3671	31792	25220	31468	35504	
3672	31760	25208	31472	35496	
3673	31904	25212	31480	35496	
3674	32064	25172	31500	35516	
3675	32240	25180	31480	35484	
3676	32288	25180	31504	35516	
3677	32400	25216	31464	35476	
3678	32464	25188	31468	35504	
3679	32528	25188	31468	35524	
3680	32544	25200	31500	35532	
3681	32624	25188	31468	35512	
3682	32656	25212	31516	35532	
3683	32704	25212	31528	35492	
3684	32768	25228	31508	35508	
3685	32768	25236	31508	35496	
3686	32800	25224	31504	35508	
3687	32800	25200	31504	35496	
3688	32736	25212	31504	35484	
3689	32688	25208	31480	35492	
3690	32704	25196	31520	35428	
3691	32640	25192	31500	35484	
3692	32640	25168	31528	35472	
3693	32608	25184	31500	35432	
3694	32608	25256	31492	35468	
3695	32656	25200	31500	35424	
3696	32912	25196	31484	35428	
3697	33120	25248	31484	35412	
3698	33024	25244	31480	35388	
3699	32624	25236	31496	35452	
3700	32752	25252	31492	35444	
3701	33776	25208	31484	35440	
3702	34976	25240	31488	35452	
3703	35984	25224	31508	35452	
3704	36176	25212	31516	35472	
3705	35376	25216	31508	35444	
3706	34832	25228	31496	35492	
3707	35040	25240	31532	35508	
3708	35008	25224	31516	35540	
3709	34480	25232	31508	35520	
3710	33776	25232	31528	35548	
3711	33584	25264	31516	35560	
3712	34080	25240	31536	35572	
3713	34816	25216	31552	35600	
3714	35472	25276	31564	35600	
3715	37312	25248	31568	35528	
3716	39024	25216	31620	35520	
3717	39264	25216	31620	35508	
3718	38576	25208	31592	35564	
3719	37424	25184	31524	35568	
3720	36080	25168	31440	35564	
3721	34784	25168	31404	35492	
3722	33616	25172	31352	35392	
3723	32784	25180	31304	35256	
3724	32016	25160	31300	35220	
3725	31264	25176	31312	35196	
3726	30624	25192	31352	35308	
3727	30128	25256	31388	35412	
3728	29792	25304	31416	35516	
3729	29584	25320	31468	35596	
3730	29408	25384	31488	35604	
3731	29392	25384	31568	35632	
3732	29424	25380	31612	35644	
3733	29456	25356	31608	35660	
3734	29504	25312	31600	35700	
3735	29648	25280	31584	35712	
3736	29632	25236	31568	35712	
3737	29776	25220	31576	35664	
3738	29872	25176	31608	35640	
3739	29984	25192	31648	35596	
3740	30064	25188	31596	35524	
3741	30144	25188	31632	35500	
3742	30160	25188	31568	35480	
3743	30144	25172	31556	35428	
3744	30256	25200	31504	35444	
3745	30288	25224	31440	35396	
3746	30304	25224	31420	35376	
3747	30240	25176	31400	35436	
3748	30304	25144	31396	35464	
3749	30384	25184	31436	35468	
3750	30480	25140	31416	35472	
3751	30464	25184	31484	35440	
3752	30496	25204	31476	35420	
3753	30512	25220	31500	35384	
3754	30576	25260	31504	35328	
3755	30592	25324	31524	35368	
3756	30528	25360	31516	35364	
3757	30528	25368	31536	35400	
3758	30560	25356	31496	35424	
3759	30592	25328	31492	35460	
3760	30576	25312	31484	35472	
3761	30624	25332	31476	35424	
3762	30704	25340	31480	35508	
3763	30640	25336	31480	35460	
3764	30592	25344	31480	35500	
3765	30640	25324	31496	35528	
3766	30608	25304	31480	35584	
3767	30592	25340	31492	35580	
3768	30544	25328	31492	35600	
3769	30544	25340	31524	35584	
3770	30528	25352	31528	35564	
3771	30480	25316	31536	35564	
3772	30512	25356	31552	35560	
3773	30528	25300	31512	35540	
3774	30480	25308	31516	35604	
3775	30464	25272	31500	35580	
3776	30496	25256	31524	35572	
3777	30464	25228	31504	35552	
3778	30480	25196	31500	35548	
3779	30432	25192	31504	35584	
3780	30448	25200	31500	35508	
3781	30416	25208	31480	35520	
3782	30432	25216	31476	35504	
3783	30576	25216	31500	35512	
3784	30608	25188	31476	35492	
3785	30720	25176	31476	35476	
3786	30768	25168	31480	35472	
3787	30848	25208	31452	35476	
3788	30896	25208	31456	35476	
3789	31040	25188	31484	35492	
3790	31088	25220	31476	35484	
3791	31168	25184	31480	35480	
3792	31184	25184	31460	35492	
3793	31360	25176	31496	35496	
3794	31568	25236	31516	35512	
3795	31520	25224	31496	35548	
3796	31600	25236	31544	35532	
3797	31600	25228	31528	35556	
3798	31712	25232	31544	35584	
3799	31744	25248	31532	35556	
3800	31808	25220	31564	35536	
3801	31872	25216	31556	35580	
3802	31856	25212	31564	35568	
3803	31904	25196	31576	35584	
3804	31968	25196	31592	35552	
3805	31984	25188	31580	35596	
3806	32096	25204	31572	35548	
3807	32160	25216	31556	35528	
3808	32144	25192	31572	35548	
3809	32288	25192	31576	35488	
3810	32368	25200	31560	35492	
3811	32384	25212	31588	35496	
3812	32496	25196	31588	35464	
3813	32608	25204	31572	35476	
3814	32784	25236	31560	35492	
3815	32896	25244	31540	35516	
3816	33056	25172	31544	35472	
3817	33120	25212	31556	35500	
3818	33264	25196	31544	35520	
3819	33328	25176	31552	35572	
3820	33344	25196	31536	35548	
3821	33392	25200	31540	35492	
3822	33392	25192	31540	35512	
3823	33376	25248	31504	35464	
3824	33408	25248	31552	35440	
3825	33456	25256	31528	35428	
3826	33424	25312	31572	35460	
3827	33344	25232	31584	35484	
3828	33344	25216	31580	35528	
3829	33424	25236	31576	35520	
3830	33408	25268	31560	35512	
3831	33440	25248	31560	35544	
3832	33376	25280	31556	35580	
3833	33392	25288	31552	35560	
3834	33264	25284	31532	35568	
3835	33248	25296	31508	35556	
3836	33200	25280	31484	35524	
3837	33264	25292	31452	35504	
3838	33232	25288	31508	35508	
3839	33280	25280	31544	35520	
3840	33200	25264	31544	35504	
3841	33184	25256	31552	35524	
3842	33184	25268	31564	35476	
3843	33184	25236	31572	35520	
3844	33088	25244	31580	35548	
3845	33136	25284	31580	35504	
3846	33136	25256	31608	35552	
3847	33104	25280	31572	35508	
3848	33088	25272	31548	35516	
3849	33040	25244	31572	35512	
3850	33088	25252	31568	35524	
3851	33088	25196	31552	35480	
3852	33104	25240	31564	35528	
3853	33136	25228	31512	35536	
3854	33088	25232	31528	35500	
3855	33168	25224	31532	35476	
3856	33152	25188	31532	35548	
3857	33136	25232	31552	35552	
3858	33152	25224	31532	35516	
3859	33200	25240	31544	35588	
3860	33120	25272	31536	35584	
3861	33120	25240	31512	35572	
3862	33104	25272	31528	35548	
3863	33152	25292	31524	35572	
3864	33088	25244	31532	35556	
3865	33184	25268	31548	35568	
3866	33200	25252	31520	35572	
3867	33216	25256	31568	35516	
3868	33296	25244	31552	35572	
3869	33280	25240	31520	35520	
3870	33184	25236	31552	35536	
3871	33152	25248	31556	35528	
3872	33152	25212	31568	35500	
3873	33216	25204	31544	35544	
3874	33168	25224	31560	35576	
3875	33200	25196	31568	35544	
3876	33200	25224	31556	35560	
3877	33152	25252	31560	35564	
3878	33168	25200	31568	35576	
3879	33120	25188	31568	35568	
3880	33152	25168	31580	35528	
3881	33088	25176	31596	35496	
3882	33040	25204	31580	35492	
3883	33040	25172	31612	35508	
3884	32960	25220	31572	35520	
3885	32944	25220	31572	35500	
3886	32960	25240	31540	35488	
3887	32944	25272	31536	35508	
3888	32976	25232	31548	35500	
3889	32944	25300	31544	35496	
3890	32944	25292	31536	35496	
3891	32976	25248	31540	35476	
3892	32912	25220	31556	35488	
3893	32896	25244	31532	35524	
3894	32784	25248	31544	35512	
3895	32800	25240	31560	35520	
3896	32896	25220	31580	35480	
3897	32816	25212	31564	35476	
3898	32736	25200	31576	35508	
3899	32704	25264	31576	35508	
3900	32704	25232	31588	35532	
3901	32752	25216	31580	35548	
3902	32768	25244	31572	35508	
3903	32752	25248	31572	35484	
3904	32672	25272	31596	35476	
3905	32688	25240	31556	35504	
3906	32672	25256	31560	35484	
3907	32608	25248	31580	35492	
3908	32608	25228	31560	35480	
3909	32592	25268	31560	35484	
3910	32528	25228	31564	35516	
3911	32512	25236	31576	35472	
3912	32528	25208	31564	35484	
3913	32528	25240	31584	35468	
3914	32528	25240	31576	35496	
3915	32528	25232	31572	35496	
3916	32528	25224	31564	35508	
3917	32512	25232	31564	35476	
3918	32512	25216	31576	35520	
3919	32528	25236	31564	35504	
3920	32560	25272	31592	35504	
3921	32624	25276	31588	35460	
3922	32528	25256	31624	35432	
3923	32400	25232	31636	35420	
3924	32208	25268	31580	35496	
3925	31984	25268	31560	35540	
3926	31840	25228	31536	35596	
3927	31776	25208	31544	35556	
3928	31744	25248	31564	35564	
3929	31712	25236	31548	35568	
3930	31744	25184	31572	35540	
3931	31696	25228	31564	35576	
3932	31648	25240	31572	35568	
3933	31680	25176	31600	35572	
3934	31680	25192	31612	35592	
3935	31712	25212	31576	35592	
3936	31712	25212	31588	35552	
3937	31712	25216	31540	35576	
3938	31808	25220	31576	35596	
3939	31856	25240	31572	35560	
3940	32032	25272	31592	35580	
3941	32144	25256	31596	35564	
3942	32272	25216	31528	35580	
3943	32368	25232	31552	35580	
3944	32464	25248	31568	35572	
3945	32448	25256	31548	35568	
3946	32480	25216	31572	35584	
3947	32528	25224	31584	35572	
3948	32592	25240	31548	35536	
3949	32592	25232	31556	35588	
3950	32688	25236	31572	35560	
3951	32800	25260	31580	35588	
3952	32784	25232	31560	35600	
3953	32864	25224	31556	35564	
3954	32848	25264	31596	35596	
3955	32960	25272	31584	35608	
3956	32912	25248	31584	35592	
3957	32896	25228	31568	35604	
3958	32816	25228	31556	35596	
3959	32688	25228	31528	35580	
3960	32656	25216	31532	35560	
3961	32640	25228	31532	35580	
3962	32576	25232	31556	35584	
3963	32752	25256	31548	35552	
3964	33088	25248	31544	35552	
3965	33328	25244	31544	35532	
3966	33392	25272	31548	35540	
3967	33104	25248	31560	35556	
3968	33424	25264	31544	35572	
3969	34400	25300	31548	35552	
3970	35344	25280	31540	35576	
3971	36032	25264	31556	35588	
3972	35840	25276	31540	35576	
3973	34496	25268	31564	35600	
3974	33808	25288	31572	35600	
3975	33776	25308	31560	35628	
3976	33632	25284	31564	35596	
3977	32944	25328	31564	35628	
3978	32288	25272	31588	35652	
3979	31920	25252	31588	35640	
3980	32528	25280	31588	35672	
3981	33488	25252	31624	35716	
3982	34448	25252	31656	35692	
3983	36560	25208	31712	35676	
3984	38496	25236	31744	35628	
3985	38864	25220	31776	35608	
3986	38368	25232	31772	35616	
3987	37280	25228	31768	35620	
3988	36080	25248	31720	35660	
3989	34880	25192	31604	35616	
3990	33824	25220	31536	35492	
3991	33056	25256	31452	35416	
3992	32272	25316	31404	35328	
3993	31632	25316	31388	35256	
3994	31056	25328	31392	35252	
3995	30592	25312	31492	35276	
3996	30352	25336	31536	35344	
3997	30208	25348	31504	35448	
3998	30096	25332	31516	35540	
3999	30080	25352	31528	35584	
4000	30128	25360	31532	35624	
4001	30112	25356	31548	35612	
4002	30096	25384	31588	35636	
4003	30176	25404	31644	35616	
4004	30224	25384	31644	35668	
4005	30304	25372	31656	35660	
4006	30320	25296	31668	35676	
4007	30352	25300	31704	35568	
4008	30400	25232	31684	35516	
4009	30448	25228	31700	35476	
4010	30400	25208	31640	35500	
4011	30464	25252	31648	35444	
4012	30496	25180	31624	35488	
