# OpenSignals Text File Format. Version 1
# {"8C:F6:81:6C:CD:1C": {"position": 0, "device": "cardiobanplux", "device name": "8C:F6:81:6C:CD:1C", "device connection": "BTH8C:F6:81:6C:CD:1C", "sampling rate": 400, "resolution": [16, 16, 16, 16], "firmware version": 1027, "comments": "", "keywords": "", "mode": 0, "sync interval": 2, "date": "2024-1-15", "time": "16:26:2.320", "channels": [1, 2, 3, 4], "sensor": ["ECG", "gACC", "gACC", "gACC"], "label": ["ECG", "ACC_X", "ACC_Y", "ACC_Z"], "column": ["nSeq", "ECG", "ACC_X", "ACC_Y", "ACC_Z"], "special": [{}, {}, {}, {}], "digital IO": []}}
# EndOfHeader
0	32864	25448	31524	35780	
1	33776	25440	31544	35772	
2	33824	25460	31532	35796	
3	33936	25480	31524	35768	
4	33984	25492	31524	35792	
5	34080	25448	31532	35800	
6	34016	25472	31532	35792	
7	34016	25460	31504	35776	
8	34064	25468	31528	35832	
9	33920	25460	31524	35816	
10	33856	25460	31504	35776	
11	33808	25448	31528	35852	
12	33760	25448	31524	35804	
13	33744	25444	31552	35848	
14	33760	25444	31544	35828	
15	33920	25404	31552	35828	
16	34336	25400	31544	35884	
17	34624	25420	31568	35844	
18	34608	25420	31580	35816	
19	34384	25416	31592	35804	
20	34272	25380	31576	35820	
21	35216	25376	31600	35868	
22	36368	25376	31580	35820	
23	36848	25356	31564	35812	
24	36640	25332	31564	35856	
25	36208	25372	31560	35812	
26	36304	25356	31544	35792	
27	36784	25348	31528	35808	
28	36928	25352	31544	35848	
29	36592	25380	31552	35852	
30	36240	25380	31528	35872	
31	36160	25356	31532	35980	
32	36672	25380	31516	35968	
33	37376	25392	31540	36068	
34	39264	25404	31584	36084	
35	41616	25448	31580	36116	
36	42400	25424	31608	36176	
37	41760	25432	31684	36156	
38	40432	25452	31724	36112	
39	38720	25468	31736	36132	
40	37040	25440	31752	36112	
41	35520	25384	31716	36052	
42	34144	25352	31660	35988	
43	33040	25336	31636	35864	
44	32144	25380	31572	35808	
45	31344	25384	31540	35740	
46	30752	25388	31504	35676	
47	30288	25436	31480	35628	
48	30112	25464	31492	35588	
49	29904	25500	31488	35620	
50	29824	25488	31456	35692	
51	29696	25476	31464	35792	
52	29696	25508	31460	35808	
53	29664	25492	31476	35804	
54	29776	25500	31484	35908	
55	29792	25516	31552	36008	
56	29760	25472	31564	36116	
57	29792	25456	31604	36164	
58	29824	25432	31648	36224	
59	29840	25408	31696	36252	
60	29872	25404	31732	36248	
61	29936	25408	31768	36252	
62	30000	25396	31772	36200	
63	30064	25388	31800	36144	
64	30032	25380	31820	36112	
65	30080	25368	31816	36052	
66	30096	25352	31828	36040	
67	30160	25368	31840	36052	
68	30112	25372	31772	35988	
69	30128	25388	31792	35980	
70	30176	25404	31712	35884	
71	30144	25468	31632	35804	
72	30256	25496	31568	35772	
73	30352	25488	31536	35704	
74	30320	25488	31512	35752	
75	30272	25516	31508	35724	
76	30272	25564	31512	35792	
77	30256	25572	31516	35756	
78	30160	25588	31568	35784	
79	30208	25588	31592	35820	
80	30192	25576	31632	35832	
81	30144	25568	31656	35896	
82	30112	25588	31668	35920	
83	30128	25604	31688	35996	
84	30128	25632	31684	36044	
85	30112	25604	31700	36120	
86	30160	25564	31676	36180	
87	30224	25528	31668	36228	
88	30208	25528	31668	36248	
89	30208	25540	31652	36248	
90	30144	25520	31628	36264	
91	30080	25468	31680	36252	
92	30160	25488	31660	36240	
93	30224	25496	31620	36228	
94	30336	25496	31632	36204	
95	30480	25484	31600	36136	
96	30528	25468	31564	36148	
97	30704	25496	31556	36064	
98	30704	25520	31532	36016	
99	30800	25488	31520	36036	
100	30896	25488	31512	36028	
101	31008	25532	31476	36032	
102	31200	25532	31492	36028	
103	31232	25564	31476	36000	
104	31168	25560	31432	36004	
105	31184	25548	31480	36052	
106	31104	25516	31480	36052	
107	31056	25544	31472	36072	
108	30992	25512	31468	36092	
109	30928	25524	31480	36116	
110	30960	25552	31480	36112	
111	30912	25512	31488	36124	
112	30944	25524	31492	36120	
113	30944	25524	31516	36124	
114	31024	25532	31488	36104	
115	30992	25552	31524	36064	
116	31136	25544	31516	36100	
117	31280	25492	31544	36092	
118	31344	25484	31556	36116	
119	31568	25476	31536	36120	
120	31712	25492	31544	36088	
121	31856	25484	31564	36092	
122	32000	25508	31564	36088	
123	32144	25492	31624	36080	
124	32272	25520	31632	36100	
125	32368	25476	31644	36128	
126	32512	25492	31640	36148	
127	32624	25512	31656	36164	
128	32688	25492	31672	36184	
129	32656	25508	31664	36196	
130	32736	25524	31664	36192	
131	32816	25516	31700	36144	
132	32928	25512	31676	36108	
133	32944	25496	31644	36100	
134	32944	25500	31684	36052	
135	32976	25460	31664	36032	
136	33024	25468	31664	36052	
137	33024	25400	31728	36108	
138	33120	25380	31728	36120	
139	33168	25488	31716	36068	
140	33216	25540	31672	36036	
141	33312	25552	31664	36020	
142	33344	25608	31692	35940	
143	33280	25600	31676	35940	
144	33344	25588	31684	35968	
145	33312	25544	31656	35996	
146	33392	25560	31708	36044	
147	33456	25580	31712	36076	
148	33424	25620	31680	36104	
149	33440	25588	31684	36132	
150	33488	25544	31676	36176	
151	33552	25608	31672	36220	
152	33504	25604	31664	36220	
153	33488	25608	31680	36216	
154	33440	25600	31656	36224	
155	33296	25632	31660	36228	
156	33152	25620	31664	36220	
157	32928	25648	31668	36260	
158	32784	25648	31656	36240	
159	32624	25608	31632	36232	
160	32544	25656	31632	36220	
161	32512	25620	31640	36232	
162	32544	25656	31628	36220	
163	32288	25620	31632	36220	
164	32048	25656	31608	36248	
165	31728	25628	31596	36248	
166	31568	25616	31600	36236	
167	31488	25628	31604	36192	
168	31424	25624	31620	36224	
169	31440	25632	31592	36176	
170	31504	25644	31612	36188	
171	31600	25636	31600	36180	
172	31712	25648	31640	36188	
173	31920	25652	31624	36192	
174	32112	25648	31620	36196	
175	32256	25684	31660	36200	
176	32544	25624	31640	36172	
177	32704	25644	31660	36196	
178	32752	25620	31680	36216	
179	33008	25616	31688	36232	
180	33264	25652	31664	36248	
181	33584	25616	31660	36212	
182	33776	25600	31648	36212	
183	33952	25624	31656	36228	
184	34016	25612	31672	36248	
185	34160	25620	31692	36244	
186	34192	25596	31664	36260	
187	34208	25620	31696	36272	
188	34256	25580	31676	36280	
189	34240	25592	31688	36260	
190	34160	25604	31688	36248	
191	34176	25572	31676	36268	
192	34064	25576	31704	36284	
193	33984	25580	31684	36268	
194	33952	25532	31684	36264	
195	33904	25532	31668	36284	
196	33840	25492	31704	36236	
197	33968	25524	31664	36256	
198	34224	25508	31684	36228	
199	34736	25528	31712	36220	
200	35024	25524	31696	36244	
201	34960	25496	31672	36212	
202	34528	25508	31708	36220	
203	34576	25512	31676	36236	
204	35536	25512	31696	36224	
205	36480	25512	31704	36216	
206	36640	25500	31692	36224	
207	36080	25516	31704	36228	
208	35440	25516	31700	36232	
209	35504	25496	31704	36272	
210	35760	25492	31712	36288	
211	35872	25480	31712	36284	
212	35600	25496	31708	36340	
213	35264	25508	31732	36328	
214	35408	25512	31744	36352	
215	36096	25500	31740	36376	
216	37344	25528	31776	36420	
217	39952	25520	31784	36416	
218	42304	25532	31824	36436	
219	42624	25528	31844	36436	
220	41600	25488	31908	36384	
221	40144	25524	31904	36332	
222	38480	25520	31868	36336	
223	36800	25548	31780	36272	
224	35312	25528	31720	36244	
225	34096	25516	31596	36140	
226	33040	25504	31548	36068	
227	32032	25524	31528	36020	
228	31264	25520	31520	36024	
229	30656	25568	31576	36000	
230	30224	25580	31668	35964	
231	30112	25588	31732	35964	
232	29952	25580	31704	36064	
233	29824	25624	31664	36172	
234	29728	25628	31628	36256	
235	29680	25616	31676	36288	
236	29728	25676	31760	36316	
237	29728	25656	31824	36344	
238	29792	25640	31836	36360	
239	29840	25644	31852	36380	
240	29856	25600	31848	36452	
241	29872	25532	31872	36504	
242	29824	25616	31832	36556	
243	29856	25572	31840	36452	
244	29936	25560	31808	36384	
245	30000	25572	31796	36340	
246	30064	25556	31780	36296	
247	30112	25532	31768	36212	
248	30208	25500	31756	36144	
249	30304	25532	31752	36140	
250	30336	25528	31716	36044	
251	30288	25520	31736	36032	
252	30384	25516	31720	36016	
253	30368	25492	31776	36004	
254	30368	25448	31764	36080	
255	30416	25496	31760	36116	
256	30448	25520	31776	36148	
257	30432	25544	31776	36076	
258	30448	25556	31780	36068	
259	30432	25592	31772	36064	
260	30400	25628	31808	36064	
261	30432	25636	31796	36056	
262	30448	25604	31792	36076	
263	30496	25624	31772	36140	
264	30464	25612	31808	36140	
265	30480	25632	31808	36216	
266	30464	25604	31804	36260	
267	30512	25592	31828	36300	
268	30512	25608	31812	36356	
269	30576	25568	31820	36356	
270	30656	25560	31820	36384	
271	30720	25556	31824	36336	
272	30752	25540	31832	36340	
273	30720	25548	31828	36348	
274	30768	25524	31816	36324	
275	30768	25528	31800	36328	
276	30864	25512	31796	36312	
277	30992	25524	31784	36256	
278	31040	25532	31740	36240	
279	31040	25540	31752	36176	
280	31136	25520	31716	36160	
281	31184	25508	31696	36144	
282	31216	25516	31712	36092	
283	31184	25516	31688	36128	
284	31152	25540	31716	36128	
285	31152	25520	31688	36184	
286	31168	25556	31716	36180	
287	31216	25620	31696	36208	
288	31200	25648	31732	36172	
289	31120	25632	31696	36188	
290	31040	25664	31720	36196	
291	31008	25656	31716	36236	
292	30912	25652	31724	36204	
293	30848	25628	31748	36232	
294	30800	25628	31764	36264	
295	30768	25616	31756	36224	
296	30816	25560	31724	36228	
297	30848	25576	31704	36248	
298	30816	25520	31728	36216	
299	30928	25516	31728	36236	
300	30944	25492	31712	36216	
301	31152	25468	31692	36236	
302	31264	25456	31684	36156	
303	31520	25412	31660	36156	
304	31664	25480	31664	36132	
305	31792	25460	31684	36140	
306	31872	25452	31684	36116	
307	31952	25476	31700	36140	
308	31936	25452	31712	36180	
309	32048	25468	31712	36184	
310	32176	25436	31716	36204	
311	32288	25452	31740	36176	
312	32320	25432	31716	36196	
313	32416	25428	31724	36196	
314	32480	25412	31720	36188	
315	32496	25388	31696	36212	
316	32496	25396	31720	36120	
317	32560	25384	31708	36128	
318	32592	25392	31716	36144	
319	32624	25384	31764	36160	
320	32720	25400	31752	36128	
321	32800	25404	31772	36128	
322	32816	25424	31784	36104	
323	32816	25420	31804	36152	
324	32800	25396	31800	36120	
325	32864	25412	31796	36124	
326	32928	25456	31820	36116	
327	32928	25440	31820	36136	
328	33040	25428	31844	36128	
329	33024	25464	31852	36108	
330	32992	25436	31832	36124	
331	33024	25448	31824	36120	
332	32992	25460	31816	36076	
333	32896	25424	31804	36104	
334	32912	25456	31796	36104	
335	32784	25420	31792	36128	
336	32624	25400	31776	36084	
337	32512	25436	31768	36144	
338	32384	25412	31736	36080	
339	32304	25388	31720	36064	
340	32304	25400	31752	36088	
341	32272	25444	31732	36100	
342	32064	25416	31752	36100	
343	31760	25452	31720	36108	
344	31424	25444	31744	36108	
345	31360	25472	31740	36072	
346	31216	25464	31724	36064	
347	31088	25460	31748	36072	
348	31120	25496	31764	36084	
349	31136	25472	31748	36072	
350	31296	25484	31756	36084	
351	31472	25512	31776	36092	
352	31664	25472	31768	36080	
353	31744	25476	31780	36076	
354	31984	25468	31768	36100	
355	32192	25460	31772	36088	
356	32320	25460	31780	36084	
357	32480	25448	31784	36072	
358	32672	25460	31764	36092	
359	32928	25452	31780	36124	
360	33088	25480	31760	36068	
361	33360	25464	31772	36100	
362	33536	25476	31780	36080	
363	33712	25456	31744	36100	
364	33808	25440	31772	36088	
365	33952	25484	31792	36048	
366	34064	25452	31756	36024	
367	34000	25452	31776	36008	
368	34016	25452	31776	36020	
369	34000	25444	31784	36000	
370	33984	25444	31776	36040	
371	33856	25412	31736	36008	
372	33808	25456	31740	35996	
373	33792	25460	31740	36040	
374	33696	25448	31740	36060	
375	33712	25472	31744	36020	
376	33760	25448	31712	36016	
377	34064	25464	31748	36004	
378	34464	25464	31748	36008	
379	34736	25452	31716	36032	
380	34528	25452	31720	36044	
381	33856	25424	31716	36016	
382	33552	25416	31716	36024	
383	34112	25436	31720	36016	
384	34528	25464	31728	36028	
385	34512	25416	31720	36044	
386	34080	25444	31712	36052	
387	33600	25436	31736	36068	
388	33936	25468	31716	36040	
389	34528	25448	31704	36096	
390	34816	25452	31740	36096	
391	34736	25456	31736	36112	
392	34720	25496	31716	36116	
393	35136	25468	31744	36184	
394	36288	25500	31732	36164	
395	38048	25500	31752	36232	
396	40976	25496	31776	36244	
397	42864	25524	31812	36236	
398	43088	25504	31836	36228	
399	42224	25472	31856	36196	
400	40768	25484	31852	36124	
401	39168	25448	31792	36080	
402	37536	25468	31724	36104	
403	35984	25452	31632	36076	
404	34752	25428	31548	36092	
405	33632	25400	31528	35964	
406	32624	25404	31548	35864	
407	31696	25440	31552	35876	
408	31024	25468	31580	35900	
409	30480	25480	31656	35936	
410	30192	25504	31708	35944	
411	30032	25516	31764	35924	
412	29904	25588	31760	35820	
413	29920	25584	31704	35916	
414	29888	25600	31660	36040	
415	29872	25584	31660	36104	
416	29888	25588	31668	36104	
417	29968	25544	31768	36116	
418	29968	25520	31796	36196	
419	29920	25528	31788	36236	
420	29936	25496	31772	36256	
421	30064	25500	31760	36216	
422	30032	25476	31776	36208	
423	30096	25464	31768	36152	
424	30176	25480	31768	36088	
425	30256	25448	31692	36000	
426	30272	25448	31680	35976	
427	30320	25416	31644	35960	
428	30288	25396	31612	35924	
429	30336	25404	31588	35952	
430	30400	25408	31588	35848	
431	30464	25436	31628	35896	
432	30512	25480	31636	35928	
433	30464	25480	31636	35960	
434	30416	25496	31696	35980	
435	30496	25464	31700	36012	
436	30464	25460	31712	36052	
437	30512	25420	31756	36048	
438	30560	25432	31740	36032	
439	30576	25400	31748	36060	
440	30560	25436	31712	36044	
441	30592	25452	31688	36064	
442	30688	25484	31712	36056	
443	30608	25460	31688	36036	
444	30608	25448	31628	36064	
445	30672	25488	31640	36012	
446	30672	25464	31664	36008	
447	30720	25468	31672	36020	
448	30672	25500	31632	36020	
449	30624	25484	31660	35976	
450	30608	25456	31660	35984	
451	30608	25420	31672	36044	
452	30672	25396	31700	36076	
453	30720	25396	31748	36104	
454	30800	25392	31728	36148	
455	30816	25392	31736	36176	
456	30864	25400	31728	36148	
457	30944	25384	31728	36212	
458	30976	25388	31736	36232	
459	31072	25412	31728	36192	
460	31024	25444	31700	36124	
461	30976	25444	31720	36116	
462	30944	25444	31724	36072	
463	30896	25480	31708	36044	
464	30992	25452	31708	36072	
465	30928	25472	31728	36064	
466	30912	25472	31720	36048	
467	30784	25452	31744	36048	
468	30800	25476	31708	36032	
469	30752	25496	31708	36060	
470	30640	25488	31712	36080	
471	30608	25524	31720	36056	
472	30576	25508	31724	36088	
473	30528	25476	31756	36076	
474	30576	25500	31732	36076	
475	30560	25472	31768	36076	
476	30656	25492	31740	36092	
477	30704	25436	31720	36076	
478	30848	25452	31732	36048	
479	31024	25432	31740	36052	
480	31040	25424	31760	36068	
481	31232	25396	31720	36068	
482	31376	25432	31680	36036	
483	31520	25424	31692	36016	
484	31616	25436	31720	36020	
485	31744	25452	31728	36028	
486	31872	25472	31724	36036	
487	32016	25476	31736	36060	
488	32096	25440	31724	36092	
489	32160	25440	31724	36104	
490	32304	25460	31700	36076	
491	32256	25468	31736	36104	
492	32336	25432	31736	36088	
493	32400	25428	31720	36044	
494	32448	25468	31696	36000	
495	32464	25456	31720	36028	
496	32512	25416	31728	36004	
497	32544	25436	31732	36016	
498	32560	25448	31704	35992	
499	32624	25468	31704	35984	
500	32656	25460	31752	36016	
501	32736	25456	31748	36032	
502	32784	25432	31768	36016	
503	32848	25444	31712	36064	
504	32864	25420	31692	36004	
505	32896	25436	31700	36016	
506	32912	25472	31728	36016	
507	32912	25460	31724	36004	
508	32928	25480	31720	35992	
509	32912	25496	31708	36028	
510	32864	25468	31736	36068	
511	32752	25464	31704	36068	
512	32656	25476	31712	36040	
513	32512	25496	31716	36092	
514	32320	25492	31692	36088	
515	32208	25480	31732	36100	
516	32240	25492	31712	36132	
517	32288	25500	31712	36084	
518	32160	25492	31744	36080	
519	31936	25472	31732	36088	
520	31664	25492	31744	36072	
521	31456	25488	31724	36072	
522	31328	25492	31724	36060	
523	31168	25504	31756	36040	
524	31040	25512	31744	36068	
525	30992	25480	31748	36072	
526	31136	25520	31740	36084	
527	31184	25508	31760	36108	
528	31408	25500	31748	36112	
529	31616	25492	31744	36080	
530	31760	25492	31744	36096	
531	31904	25508	31756	36080	
532	32096	25468	31764	36096	
533	32320	25488	31732	36064	
534	32496	25448	31744	36036	
535	32608	25456	31740	36048	
536	32752	25452	31748	36044	
537	32976	25488	31720	36032	
538	33184	25420	31736	36040	
539	33344	25460	31700	36068	
540	33536	25468	31720	36048	
541	33696	25468	31736	36060	
542	33792	25468	31728	36060	
543	33808	25436	31732	36064	
544	33808	25452	31712	36028	
545	33856	25440	31712	36036	
546	33760	25488	31728	36076	
547	33744	25424	31700	36028	
548	33680	25452	31720	36016	
549	33632	25440	31720	36024	
550	33552	25448	31708	36012	
551	33600	25420	31712	36012	
552	33600	25420	31716	36032	
553	33632	25452	31704	36000	
554	33936	25432	31692	35996	
555	34224	25432	31720	35996	
556	34384	25440	31724	35996	
557	34048	25456	31676	35976	
558	33248	25436	31688	35976	
559	33040	25436	31708	35996	
560	33648	25420	31664	35976	
561	34256	25452	31660	35956	
562	34480	25392	31688	35940	
563	34368	25452	31692	35964	
564	34112	25472	31672	35968	
565	34784	25452	31700	35976	
566	35488	25448	31664	36016	
567	35872	25464	31688	36048	
568	35840	25464	31704	36040	
569	35984	25504	31736	36072	
570	36656	25448	31708	36092	
571	37696	25444	31736	36084	
572	39408	25452	31756	36132	
573	41792	25452	31768	36168	
574	43184	25484	31776	36160	
575	43008	25452	31808	36144	
576	42048	25444	31792	36080	
577	40544	25452	31756	36024	
578	38944	25464	31660	36016	
579	37376	25436	31600	36032	
580	35840	25424	31532	36008	
581	34480	25384	31496	36004	
582	33392	25400	31488	35920	
583	32368	25424	31544	35808	
584	31520	25456	31588	35804	
585	30864	25496	31708	35828	
586	30304	25492	31764	35816	
587	29904	25524	31776	35792	
588	29856	25532	31732	35780	
589	29776	25544	31676	35868	
590	29744	25552	31584	35964	
591	29728	25528	31612	36044	
592	29712	25516	31688	36024	
593	29792	25528	31740	36068	
594	29808	25496	31768	36104	
595	29808	25468	31780	36108	
596	29856	25492	31724	36120	
597	29792	25472	31744	36120	
598	29760	25468	31708	36148	
599	29792	25460	31720	36092	
600	29840	25432	31732	36048	
601	29888	25460	31752	35976	
602	30000	25420	31712	35904	
603	30080	25392	31680	35900	
604	30144	25384	31616	35848	
605	30144	25348	31620	35856	
606	30240	25360	31628	35864	
607	30256	25324	31608	35792	
608	30256	25368	31668	35812	
609	30176	25368	31660	35816	
610	30176	25404	31676	35868	
611	30192	25436	31704	35916	
612	30192	25456	31752	35872	
613	30288	25480	31768	35916	
614	30288	25456	31772	35952	
615	30272	25484	31792	35940	
616	30272	25468	31796	35940	
617	30336	25464	31780	35968	
618	30288	25452	31740	35944	
619	30288	25436	31724	35972	
620	30336	25472	31712	36008	
621	30304	25424	31716	35956	
622	30256	25448	31720	36036	
623	30336	25448	31712	36012	
624	30320	25416	31724	36024	
625	30368	25424	31748	35996	
626	30384	25460	31708	36004	
627	30528	25464	31720	35972	
628	30528	25544	31604	35900	
629	30576	25424	31688	35928	
630	30560	25404	31732	35972	
631	30672	25332	31784	36084	
632	30704	25368	31772	36068	
633	30768	25364	31768	36064	
634	30704	25332	31768	36068	
635	30688	25356	31776	36092	
636	30800	25384	31744	36076	
637	30848	25340	31736	36084	
638	30944	25404	31716	36072	
639	30944	25416	31684	36016	
640	30928	25428	31688	36004	
641	30992	25408	31708	35988	
642	30960	25412	31712	36000	
643	30928	25412	31728	35940	
644	30896	25448	31716	35992	
645	30816	25448	31720	35992	
646	30784	25460	31728	35988	
647	30672	25500	31728	36000	
648	30672	25488	31720	36004	
649	30544	25456	31736	36012	
650	30416	25476	31708	36040	
651	30400	25460	31708	36032	
652	30352	25460	31720	35968	
653	30416	25460	31720	36024	
654	30448	25468	31732	36012	
655	30544	25432	31732	36000	
656	30672	25440	31732	36024	
657	30800	25436	31720	35988	
658	30944	25444	31732	36020	
659	31072	25412	31704	35980	
660	31168	25416	31712	35956	
661	31296	25412	31736	35920	
662	31456	25436	31736	35960	
663	31600	25400	31712	35980	
664	31840	25372	31708	35972	
665	31872	25376	31720	35984	
666	31936	25408	31732	35992	
667	31952	25372	31732	36024	
668	32032	25400	31736	36024	
669	32128	25368	31728	36004	
670	32256	25372	31736	35980	
671	32320	25396	31696	35956	
672	32384	25440	31676	35920	
673	32448	25432	31688	35880	
674	32464	25352	31704	35908	
675	32544	25296	31732	35924	
676	32640	25360	31780	35964	
677	32544	25324	31784	35936	
678	32608	25372	31768	35992	
679	32656	25328	31772	35992	
680	32736	25364	31764	36036	
681	32800	25360	31760	36016	
682	32816	25344	31764	36028	
683	32784	25368	31764	36008	
684	32656	25368	31764	36032	
685	32480	25360	31752	36000	
686	32400	25396	31744	35976	
687	32256	25372	31736	35980	
688	32160	25364	31748	36016	
689	32096	25400	31736	36004	
690	32128	25408	31752	35992	
691	32112	25432	31740	35972	
692	31888	25428	31756	36028	
693	31664	25440	31768	36008	
694	31472	25428	31752	35980	
695	31344	25440	31732	35976	
696	31184	25440	31736	35972	
697	31040	25464	31760	35988	
698	31024	25500	31732	35980	
699	31040	25496	31756	35968	
700	31152	25540	31688	35852	
701	31424	25484	31720	35908	
702	31664	25496	31716	35924	
703	31904	25460	31724	35968	
704	31952	25484	31736	36000	
705	32160	25460	31764	36000	
706	32336	25472	31744	36032	
707	32512	25484	31720	36004	
708	32624	25448	31768	36044	
709	32896	25476	31744	36032	
710	33088	25460	31756	35984	
711	33264	25488	31748	36016	
712	33424	25440	31736	35996	
713	33600	25448	31684	36004	
714	33712	25436	31736	36008	
715	33904	25464	31708	36000	
716	33936	25440	31708	35960	
717	33952	25452	31708	35976	
718	33984	25428	31716	35968	
719	33984	25448	31704	35988	
720	33984	25476	31696	35924	
721	33920	25464	31708	35936	
722	33888	25448	31688	35944	
723	33824	25464	31684	35940	
724	33840	25464	31696	35924	
725	33856	25448	31720	35924	
726	33856	25480	31672	35928	
727	33920	25440	31712	35896	
728	34288	25452	31708	35936	
729	34688	25432	31696	35892	
730	34752	25412	31712	35924	
731	34416	25424	31692	35936	
732	33968	25408	31712	35876	
733	34368	25424	31720	35916	
734	35152	25424	31700	35908	
735	35792	25396	31732	35940	
736	35904	25400	31704	35948	
737	35584	25372	31736	35944	
738	35600	25396	31728	35948	
739	36208	25412	31716	35988	
740	36672	25376	31748	35980	
741	36464	25392	31700	36008	
742	36176	25392	31728	36016	
743	35920	25376	31724	36036	
744	36240	25384	31708	36052	
745	36928	25384	31704	36112	
746	38592	25412	31720	36044	
747	41200	25372	31708	36084	
748	42576	25388	31752	36032	
749	42224	25372	31788	36004	
750	41088	25380	31800	35944	
751	39456	25360	31808	35924	
752	37712	25340	31788	35904	
753	36016	25284	31748	35932	
754	34624	25236	31716	35968	
755	33552	25188	31636	35952	
756	32592	25220	31556	35824	
757	31632	25276	31480	35756	
758	30960	25356	31436	35736	
759	30352	25396	31444	35768	
760	30112	25408	31520	35748	
761	29904	25408	31584	35716	
762	29824	25416	31700	35648	
763	29824	25476	31680	35676	
764	29792	25504	31648	35812	
765	29840	25488	31636	35856	
766	29904	25504	31688	35996	
767	29984	25488	31744	35996	
768	29936	25552	31728	36012	
769	29872	25500	31760	36016	
770	29888	25376	31768	36056	
771	29856	25356	31780	36104	
772	29872	25352	31744	36056	
773	29904	25336	31756	36032	
774	29952	25340	31732	35976	
775	29936	25336	31724	35936	
776	30048	25324	31728	35908	
777	30064	25300	31716	35828	
778	30016	25296	31716	35792	
779	30096	25284	31660	35764	
780	30176	25244	31684	35708	
781	30160	25244	31656	35692	
782	30160	25220	31648	35704	
783	30224	25264	31612	35712	
784	30272	25312	31600	35728	
785	30288	25348	31632	35748	
786	30336	25376	31640	35744	
787	30320	25380	31616	35732	
788	30256	25388	31640	35716	
789	30256	25400	31660	35656	
790	30336	25388	31688	35680	
791	30384	25420	31696	35684	
792	30352	25440	31680	35772	
793	30352	25436	31672	35756	
794	30256	25456	31632	35744	
795	30304	25488	31652	35800	
796	30240	25456	31664	35836	
797	30256	25448	31668	35908	
798	30320	25428	31676	35960	
799	30400	25412	31716	35960	
800	30448	25424	31732	35988	
801	30496	25404	31760	36008	
802	30464	25372	31724	35992	
803	30528	25356	31764	36012	
804	30544	25356	31740	36020	
805	30576	25340	31756	35984	
806	30704	25356	31736	35988	
807	30832	25324	31720	35988	
808	30944	25360	31716	35984	
809	31088	25300	31688	35992	
810	31136	25300	31692	35956	
811	31168	25308	31660	35940	
812	31248	25336	31636	35980	
813	31152	25352	31652	35964	
814	31200	25360	31632	35948	
815	31264	25396	31604	35932	
816	31184	25396	31616	35932	
817	31200	25396	31596	35892	
818	31072	25420	31624	35880	
819	31008	25460	31648	35912	
820	30912	25440	31640	35876	
821	30688	25448	31660	35940	
822	30640	25460	31660	35928	
823	30608	25432	31664	35928	
824	30688	25468	31680	35904	
825	30672	25444	31664	35940	
826	30736	25388	31676	35944	
827	30864	25420	31688	35944	
828	30928	25416	31692	35896	
829	31040	25412	31660	35924	
830	31232	25396	31660	35944	
831	31360	25416	31676	35892	
832	31488	25448	31632	35848	
833	31680	25440	31620	35752	
834	31824	25416	31648	35736	
835	31936	25396	31664	35764	
836	32016	25396	31696	35780	
837	32128	25392	31740	35852	
838	32240	25396	31756	35860	
839	32304	25380	31724	35928	
840	32304	25396	31728	36036	
841	32336	25376	31736	36088	
842	32416	25396	31708	36076	
843	32416	25372	31692	36108	
844	32400	25396	31704	36072	
845	32464	25384	31720	36048	
846	32528	25388	31728	36032	
847	32608	25380	31724	36000	
848	32592	25372	31724	35964	
849	32624	25380	31744	35944	
850	32672	25352	31732	35948	
851	32704	25400	31740	35952	
852	32720	25372	31708	35924	
853	32704	25368	31736	35956	
854	32720	25380	31712	35956	
855	32704	25360	31736	35928	
856	32656	25412	31708	35936	
857	32576	25432	31696	35908	
858	32368	25452	31716	35860	
859	32304	25452	31704	35884	
860	32160	25416	31756	35884	
861	32128	25404	31744	35952	
862	32192	25408	31744	35928	
863	32112	25408	31748	35948	
864	31936	25372	31736	35976	
865	31728	25384	31736	36000	
866	31440	25408	31744	36028	
867	31232	25380	31756	36012	
868	31104	25384	31736	36032	
869	31120	25412	31720	36052	
870	31104	25392	31764	36076	
871	31200	25376	31692	36096	
872	31344	25392	31712	36048	
873	31520	25412	31736	36036	
874	31744	25404	31708	36016	
875	31888	25412	31740	36000	
876	32080	25396	31776	35960	
877	32288	25400	31736	35956	
878	32464	25380	31720	36000	
879	32576	25404	31716	35988	
880	32816	25396	31736	36036	
881	33056	25388	31744	36032	
882	33232	25404	31740	35996	
883	33408	25424	31760	35980	
884	33536	25396	31756	35980	
885	33744	25420	31752	35984	
886	33888	25372	31744	35988	
887	34016	25400	31740	35964	
888	34096	25424	31760	35972	
889	34096	25412	31760	35952	
890	34144	25420	31760	35920	
891	34112	25432	31776	35956	
892	34112	25412	31772	35936	
893	34032	25416	31736	35920	
894	34016	25424	31760	35916	
895	33920	25436	31768	35864	
896	33904	25404	31748	35888	
897	33776	25408	31736	35860	
898	33792	25404	31764	35908	
899	34128	25436	31764	35876	
900	34592	25428	31756	35916	
901	34992	25456	31744	35872	
902	34992	25404	31760	35904	
903	34576	25416	31760	35924	
904	34448	25420	31780	35868	
905	35040	25424	31760	35912	
906	35568	25432	31756	35876	
907	35520	25388	31752	35916	
908	35104	25400	31752	35908	
909	34784	25400	31752	35912	
910	35264	25400	31756	35960	
911	35968	25408	31764	35976	
912	36176	25392	31748	36016	
913	35824	25396	31748	36032	
914	35408	25384	31756	36080	
915	35456	25412	31752	36080	
916	36208	25396	31748	36128	
917	37312	25388	31752	36180	
918	40112	25400	31776	36180	
919	42256	25404	31808	36132	
920	42560	25388	31848	36064	
921	41776	25400	31892	35996	
922	40272	25408	31908	35948	
923	38448	25412	31896	35896	
924	36880	25364	31876	35896	
925	35328	25348	31836	35920	
926	34064	25248	31808	35852	
927	32992	25268	31740	35776	
928	31968	25300	31656	35716	
929	31184	25376	31628	35736	
930	30640	25404	31548	35764	
931	30256	25428	31544	35772	
932	30016	25488	31552	35764	
933	30016	25536	31584	35744	
934	30000	25568	31612	35744	
935	30016	25536	31592	35828	
936	30016	25540	31620	35876	
937	30016	25492	31616	35892	
938	29984	25508	31696	35920	
939	30048	25484	31748	35944	
940	30096	25504	31748	36024	
941	30176	25464	31792	36080	
942	30048	25444	31796	36132	
943	30080	25416	31820	36136	
944	30160	25408	31852	36088	
945	30176	25400	31832	36124	
946	30224	25412	31848	36092	
947	30240	25372	31820	36032	
948	30256	25372	31812	35968	
949	30288	25388	31816	35928	
950	30336	25356	31796	35896	
951	30400	25336	31776	35888	
952	30400	25348	31764	35836	
953	30512	25316	31716	35788	
954	30512	25340	31688	35784	
955	30480	25376	31676	35764	
956	30496	25408	31676	35772	
957	30464	25392	31676	35736	
958	30480	25428	31664	35748	
959	30496	25452	31660	35720	
960	30560	25460	31664	35740	
961	30560	25508	31688	35708	
962	30464	25500	31672	35696	
963	30480	25508	31688	35732	
964	30528	25492	31656	35748	
965	30560	25508	31696	35720	
966	30544	25472	31680	35828	
967	30480	25480	31692	35800	
968	30464	25452	31704	35892	
969	30496	25452	31692	35940	
970	30512	25436	31708	35956	
971	30560	25424	31708	36024	
972	30608	25428	31724	36068	
973	30608	25396	31712	36060	
974	30720	25380	31748	36084	
975	30768	25408	31736	36080	
976	30896	25384	31740	36080	
977	30976	25388	31764	36068	
978	31056	25376	31748	36064	
979	31184	25384	31772	36052	
980	31232	25352	31748	36016	
981	31232	25360	31752	35988	
982	31376	25376	31720	35988	
983	31312	25360	31712	35928	
984	31424	25400	31684	35928	
985	31408	25356	31676	35944	
986	31344	25392	31680	35944	
987	31312	25384	31648	35904	
988	31344	25412	31660	35928	
989	31296	25444	31644	35924	
990	31264	25432	31620	35920	
991	31136	25448	31648	35892	
992	30992	25448	31656	35928	
993	30928	25420	31660	35924	
994	30864	25436	31664	35888	
995	30768	25432	31680	35844	
996	30640	25420	31700	35868	
997	30704	25412	31712	35828	
998	30704	25396	31720	35856	
999	30800	25428	31728	35852	
1000	30992	25396	31716	35836	
1001	31088	25368	31704	35876	
1002	31184	25400	31740	35844	
1003	31360	25404	31676	35824	
1004	31520	25376	31660	35804	
1005	31664	25388	31668	35820	
1006	31808	25396	31656	35860	
1007	31856	25404	31668	35904	
1008	31904	25416	31708	35916	
1009	31920	25408	31704	35920	
1010	32000	25380	31688	35936	
1011	32080	25412	31704	35964	
1012	32240	25372	31724	35976	
1013	32320	25400	31684	36004	
1014	32336	25384	31704	36040	
1015	32352	25372	31704	36012	
1016	32400	25368	31704	35992	
1017	32448	25336	31704	35988	
1018	32480	25360	31708	35976	
1019	32528	25364	31692	35948	
1020	32544	25344	31712	35924	
1021	32560	25372	31696	35884	
1022	32672	25340	31708	35864	
1023	32688	25372	31732	35872	
1024	32704	25368	31732	35852	
1025	32592	25352	31748	35880	
1026	32480	25392	31772	35896	
1027	32416	25360	31756	35880	
1028	32272	25408	31776	35892	
1029	32176	25384	31752	35880	
1030	32128	25404	31780	35908	
1031	32128	25388	31740	35912	
1032	32144	25396	31756	35912	
1033	32016	25384	31748	35896	
1034	31792	25388	31732	35912	
1035	31600	25392	31728	35964	
1036	31360	25384	31768	35928	
1037	31184	25412	31716	35920	
1038	31136	25384	31732	35972	
1039	31152	25400	31700	35932	
1040	31104	25392	31724	35984	
1041	31248	25392	31700	35984	
1042	31376	25404	31692	35968	
1043	31632	25408	31736	35988	
1044	31808	25396	31724	35976	
1045	32048	25388	31724	36008	
1046	32176	25424	31724	35976	
1047	32384	25412	31716	35960	
1048	32592	25392	31720	35968	
1049	32784	25424	31724	36008	
1050	32992	25428	31732	35948	
1051	33264	25388	31724	35928	
1052	33552	25416	31716	35924	
1053	33680	25420	31688	35884	
1054	33808	25392	31724	35880	
1055	33952	25400	31732	35900	
1056	34096	25376	31720	35880	
1057	34096	25388	31744	35868	
1058	34176	25408	31736	35880	
1059	34160	25364	31708	35912	
1060	34176	25388	31724	35896	
1061	34144	25388	31732	35900	
1062	34096	25368	31728	35848	
1063	34016	25396	31736	35908	
1064	34048	25380	31692	35896	
1065	34016	25360	31696	35884	
1066	33968	25392	31676	35832	
1067	33872	25388	31712	35872	
1068	33904	25384	31716	35860	
1069	34272	25396	31748	35852	
1070	34688	25384	31748	35860	
1071	34944	25384	31752	35832	
1072	34672	25416	31744	35824	
1073	34208	25388	31768	35832	
1074	34352	25376	31740	35824	
1075	34768	25380	31752	35876	
1076	34960	25388	31740	35832	
1077	34576	25376	31760	35832	
1078	34080	25380	31732	35832	
1079	33888	25380	31740	35872	
1080	34512	25380	31728	35848	
1081	35200	25364	31728	35924	
1082	35200	25348	31720	35936	
1083	34800	25356	31756	35952	
1084	34528	25348	31724	36004	
1085	35280	25356	31720	35976	
1086	36224	25372	31728	36056	
1087	38464	25360	31700	36076	
1088	41296	25356	31724	36124	
1089	42592	25368	31752	36088	
1090	42336	25376	31820	36032	
1091	41328	25376	31900	35932	
1092	39584	25416	31892	35852	
1093	37952	25360	31888	35756	
1094	36368	25368	31860	35768	
1095	35088	25296	31836	35788	
1096	33968	25224	31776	35816	
1097	32912	25200	31720	35736	
1098	31984	25228	31684	35644	
1099	31312	25276	31612	35640	
1100	30848	25336	31528	35748	
1101	30592	25416	31520	35820	
1102	30432	25432	31512	35848	
1103	30336	25448	31528	35752	
1104	30224	25488	31528	35736	
1105	30208	25500	31548	35752	
1106	30128	25476	31548	35828	
1107	30176	25484	31600	35824	
1108	30272	25464	31660	35848	
1109	30256	25428	31692	35880	
1110	30272	25448	31720	35920	
1111	30272	25412	31756	35984	
1112	30160	25396	31808	36016	
1113	30160	25384	31804	36036	
1114	30192	25360	31820	36028	
1115	30240	25316	31860	36008	
1116	30368	25384	31864	35988	
1117	30480	25356	31864	35956	
1118	30496	25360	31828	35896	
1119	30496	25348	31780	35808	
1120	30528	25352	31764	35804	
1121	30608	25292	31740	35788	
1122	30576	25312	31692	35772	
1123	30624	25352	31696	35712	
1124	30640	25348	31644	35740	
1125	30656	25368	31660	35716	
1126	30688	25416	31632	35720	
1127	30720	25428	31612	35728	
1128	30672	25444	31636	35696	
1129	30704	25452	31632	35700	
1130	30656	25468	31620	35756	
1131	30608	25496	31600	35744	
1132	30688	25476	31664	35760	
1133	30672	25464	31664	35748	
1134	30720	25484	31688	35764	
1135	30768	25464	31680	35756	
1136	30800	25468	31728	35744	
1137	30736	25432	31752	35744	
1138	30784	25436	31748	35824	
1139	30736	25440	31720	35876	
1140	30720	25392	31732	35964	
1141	30800	25404	31748	36004	
1142	30880	25380	31748	36016	
1143	30896	25376	31744	36028	
1144	30960	25376	31760	36024	
1145	31056	25368	31756	36064	
1146	31104	25340	31768	36024	
1147	31184	25332	31748	36012	
1148	31264	25324	31736	36012	
1149	31296	25320	31716	35976	
1150	31344	25316	31736	35992	
1151	31424	25280	31724	35960	
1152	31488	25336	31712	35952	
1153	31584	25284	31668	35944	
1154	31584	25364	31700	35936	
1155	31536	25296	31680	35864	
1156	31536	25360	31676	35900	
1157	31440	25376	31640	35888	
1158	31344	25372	31664	35888	
1159	31280	25380	31676	35880	
1160	31168	25384	31652	35904	
1161	31024	25404	31652	35888	
1162	30896	25424	31668	35880	
1163	30848	25424	31676	35880	
1164	30784	25412	31696	35832	
1165	30720	25400	31688	35836	
1166	30768	25412	31692	35820	
1167	30832	25396	31720	35836	
1168	30800	25380	31720	35808	
1169	30752	25376	31716	35816	
1170	30928	25364	31716	35840	
1171	31040	25368	31704	35828	
1172	31200	25376	31664	35848	
1173	31360	25344	31644	35772	
1174	31488	25364	31624	35784	
1175	31584	25404	31640	35768	
1176	31728	25404	31664	35784	
1177	31808	25420	31672	35772	
1178	31920	25376	31696	35788	
1179	32064	25372	31700	35788	
1180	32160	25384	31752	35828	
1181	32160	25356	31704	35856	
1182	32240	25384	31708	35868	
1183	32320	25376	31708	35940	
1184	32432	25360	31720	35956	
1185	32528	25348	31732	35964	
1186	32528	25336	31692	35964	
1187	32496	25352	31696	35968	
1188	32544	25308	31712	35904	
1189	32624	25348	31708	35852	
1190	32656	25352	31728	35836	
1191	32704	25360	31748	35816	
1192	32720	25332	31744	35836	
1193	32656	25368	31760	35812	
1194	32480	25348	31740	35832	
1195	32384	25364	31752	35792	
1196	32288	25360	31760	35848	
1197	32240	25364	31744	35820	
1198	32192	25348	31736	35864	
1199	32176	25380	31756	35864	
1200	32128	25392	31744	35884	
1201	31840	25368	31752	35880	
1202	31584	25316	31744	35912	
1203	31392	25352	31752	35904	
1204	31184	25376	31748	35924	
1205	31104	25360	31740	35932	
1206	31072	25352	31736	35908	
1207	31072	25368	31736	35932	
1208	31168	25372	31716	35932	
1209	31328	25360	31728	35932	
1210	31408	25388	31716	35904	
1211	31520	25380	31740	35936	
1212	31728	25384	31728	35908	
1213	31936	25388	31728	35932	
1214	32064	25372	31732	35888	
1215	32240	25372	31712	35876	
1216	32448	25388	31720	35820	
1217	32624	25384	31736	35856	
1218	32864	25376	31692	35908	
1219	33136	25392	31744	35836	
1220	33440	25388	31716	35900	
1221	33568	25384	31736	35856	
1222	33760	25380	31720	35860	
1223	33856	25388	31712	35880	
1224	33952	25360	31720	35848	
1225	33984	25372	31704	35856	
1226	34016	25364	31720	35824	
1227	34000	25384	31704	35852	
1228	33968	25380	31700	35856	
1229	34032	25380	31728	35824	
1230	33936	25352	31712	35804	
1231	33904	25356	31764	35872	
1232	33808	25384	31732	35864	
1233	33760	25364	31728	35824	
1234	33728	25372	31744	35824	
1235	33632	25372	31712	35828	
1236	33840	25336	31724	35860	
1237	34224	25344	31700	35852	
1238	34656	25372	31688	35864	
1239	34704	25344	31680	35800	
1240	34320	25376	31720	35808	
1241	33760	25340	31708	35808	
1242	33920	25364	31692	35804	
1243	34208	25340	31708	35808	
1244	34288	25356	31684	35772	
1245	33888	25360	31712	35776	
1246	33344	25348	31724	35820	
1247	33504	25368	31704	35860	
1248	34176	25356	31720	35876	
1249	34816	25372	31696	35888	
1250	34704	25352	31732	35928	
1251	34384	25316	31724	35968	
1252	34288	25364	31728	35980	
1253	35200	25328	31724	36040	
1254	36528	25356	31736	36020	
1255	39264	25352	31736	36120	
1256	41952	25344	31772	36160	
1257	42768	25328	31784	36156	
1258	42448	25396	31820	36044	
1259	41296	25356	31888	35956	
1260	39680	25376	31852	35720	
1261	37888	25356	31788	35660	
1262	36352	25340	31688	35676	
1263	35088	25276	31604	35696	
1264	33984	25252	31540	35636	
1265	32960	25308	31500	35588	
1266	32000	25328	31460	35616	
1267	31392	25408	31432	35712	
1268	30896	25408	31468	35788	
1269	30592	25388	31544	35796	
1270	30544	25444	31596	35696	
1271	30416	25504	31668	35636	
1272	30448	25524	31696	35636	
1273	30432	25504	31664	35680	
1274	30384	25504	31704	35748	
1275	30432	25488	31736	35804	
1276	30480	25432	31780	35848	
1277	30544	25400	31772	35948	
1278	30528	25376	31840	36000	
1279	30544	25404	31808	36032	
1280	30624	25356	31808	36040	
1281	30544	25352	31836	36068	
1282	30576	25348	31816	36048	
1283	30592	25312	31824	36008	
1284	30608	25208	31844	36004	
1285	30784	25168	31772	36012	
1286	30800	25224	31760	35980	
1287	30832	25224	31668	35892	
1288	30768	25224	31640	35820	
1289	30800	25236	31636	35792	
1290	30800	25344	31656	35696	
1291	30816	25360	31624	35656	
1292	30832	25408	31632	35608	
1293	30944	25392	31624	35624	
1294	30960	25392	31668	35628	
1295	30992	25368	31672	35672	
1296	31008	25352	31680	35656	
1297	30992	25360	31676	35668	
1298	30944	25360	31680	35628	
1299	30944	25356	31656	35692	
1300	30960	25384	31684	35684	
1301	30992	25344	31672	35700	
1302	31056	25364	31636	35688	
1303	31040	25376	31684	35684	
1304	30992	25392	31680	35744	
1305	30992	25436	31708	35728	
1306	30992	25428	31688	35788	
1307	30976	25436	31736	35848	
1308	31040	25388	31736	35920	
1309	31024	25384	31724	35916	
1310	31152	25380	31728	35980	
1311	31216	25368	31748	35976	
1312	31216	25364	31740	35984	
1313	31312	25356	31768	35964	
1314	31392	25324	31756	35968	
1315	31440	25308	31756	35948	
1316	31552	25284	31732	35920	
1317	31472	25304	31716	35904	
1318	31536	25296	31700	35848	
1319	31552	25304	31672	35876	
1320	31536	25252	31688	35852	
1321	31472	25268	31688	35852	
1322	31536	25304	31656	35784	
1323	31440	25280	31640	35784	
1324	31360	25332	31648	35768	
1325	31280	25392	31660	35808	
1326	31200	25400	31668	35812	
1327	31152	25400	31676	35864	
1328	31040	25352	31652	35824	
1329	30912	25364	31668	35840	
1330	30720	25368	31672	35820	
1331	30672	25376	31684	35848	
1332	30768	25404	31672	35832	
1333	30816	25384	31660	35820	
1334	30832	25336	31652	35812	
1335	30912	25368	31696	35824	
1336	30992	25360	31692	35800	
1337	31120	25376	31688	35828	
1338	31168	25372	31656	35808	
1339	31216	25348	31672	35812	
1340	31408	25356	31664	35796	
1341	31568	25356	31648	35744	
1342	31792	25352	31680	35768	
1343	31920	25356	31668	35756	
1344	32144	25364	31696	35772	
1345	32240	25400	31708	35820	
1346	32336	25364	31684	35832	
1347	32368	25364	31708	35840	
1348	32416	25388	31692	35848	
1349	32464	25384	31684	35928	
1350	32544	25400	31696	35880	
1351	32560	25400	31708	35908	
1352	32576	25392	31680	35912	
1353	32704	25408	31712	35844	
1354	32784	25440	31692	35844	
1355	32848	25388	31688	35844	
1356	32848	25384	31708	35848	
1357	32800	25352	31700	35868	
1358	32800	25360	31712	35828	
1359	32800	25324	31724	35800	
1360	32768	25364	31724	35780	
1361	32672	25304	31716	35792	
1362	32544	25316	31708	35844	
1363	32464	25284	31704	35792	
1364	32336	25312	31684	35784	
1365	32224	25324	31708	35764	
1366	32272	25360	31684	35764	
1367	32240	25376	31680	35784	
1368	32016	25368	31700	35804	
1369	31824	25368	31732	35844	
1370	31568	25360	31736	35852	
1371	31328	25356	31748	35848	
1372	31184	25400	31716	35880	
1373	31168	25368	31728	35872	
1374	31104	25392	31744	35912	
1375	31216	25372	31764	35984	
1376	31376	25368	31708	35936	
1377	31536	25396	31728	35968	
1378	31744	25380	31752	35944	
1379	31904	25388	31752	35968	
1380	32144	25376	31744	35940	
1381	32272	25384	31748	35968	
1382	32464	25392	31720	35916	
1383	32528	25416	31760	35944	
1384	32656	25392	31768	35976	
1385	32896	25360	31736	35932	
1386	33088	25380	31724	35880	
1387	33376	25372	31712	35924	
1388	33632	25372	31740	35828	
1389	33840	25364	31736	35880	
1390	33952	25360	31724	35864	
1391	34016	25364	31704	35876	
1392	34144	25352	31704	35832	
1393	34144	25336	31692	35844	
1394	34192	25376	31692	35840	
1395	34096	25376	31696	35796	
1396	34048	25360	31692	35856	
1397	33968	25356	31696	35828	
1398	33936	25384	31708	35828	
1399	33936	25368	31708	35800	
1400	33904	25384	31684	35816	
1401	33840	25380	31700	35832	
1402	33888	25368	31684	35824	
1403	34096	25400	31716	35876	
1404	34384	25376	31688	35836	
1405	34768	25344	31692	35788	
1406	34576	25364	31720	35784	
1407	33920	25348	31712	35808	
1408	33280	25412	31732	35840	
1409	33488	25368	31708	35864	
1410	33904	25388	31716	35868	
1411	34000	25376	31712	35872	
1412	33648	25380	31696	35864	
1413	33312	25356	31736	35876	
1414	33728	25348	31728	35872	
1415	34464	25404	31736	35868	
1416	35168	25364	31748	35904	
1417	35344	25388	31748	35912	
1418	35168	25400	31764	35928	
1419	35408	25380	31732	35936	
1420	36416	25380	31776	35984	
1421	38064	25388	31760	36020	
1422	40864	25380	31804	36056	
1423	42976	25348	31812	36040	
1424	43392	25364	31884	36052	
1425	42688	25340	31880	35952	
1426	41440	25276	31856	35928	
1427	39808	25356	31784	35852	
1428	38192	25356	31692	35788	
1429	36592	25324	31620	35804	
1430	35248	25320	31552	35812	
1431	34096	25232	31536	35796	
1432	33040	25220	31524	35688	
1433	32048	25232	31556	35608	
1434	31328	25280	31620	35692	
1435	30720	25308	31660	35772	
1436	30464	25376	31716	35792	
1437	30288	25308	31736	35740	
1438	30144	25344	31744	35744	
1439	30112	25472	31692	35764	
1440	30096	25516	31668	35728	
1441	30112	25508	31660	35736	
1442	30160	25492	31708	35788	
1443	30128	25444	31744	35820	
1444	30112	25408	31796	35884	
1445	30176	25432	31792	35960	
1446	30256	25368	31772	36056	
1447	30208	25404	31776	36124	
1448	30304	25420	31752	36100	
1449	30256	25424	31776	36060	
1450	30368	25424	31788	36032	
1451	30400	25416	31788	35972	
1452	30368	25416	31748	35808	
1453	30416	25424	31732	35736	
1454	30400	25372	31680	35688	
1455	30432	25368	31644	35616	
1456	30432	25372	31616	35584	
1457	30512	25316	31596	35532	
1458	30512	25284	31608	35568	
1459	30608	25292	31572	35636	
1460	30592	25364	31604	35628	
1461	30592	25372	31656	35684	
1462	30512	25376	31680	35728	
1463	30480	25340	31692	35744	
1464	30528	25376	31732	35728	
1465	30576	25396	31752	35756	
1466	30592	25420	31736	35764	
1467	30640	25440	31752	35836	
1468	30608	25436	31732	35856	
1469	30528	25456	31712	35900	
1470	30640	25416	31708	35940	
1471	30656	25384	31672	35864	
1472	30704	25348	31696	35872	
1473	30688	25348	31708	35864	
1474	30688	25340	31680	35892	
1475	30640	25364	31676	35868	
1476	30608	25344	31704	35856	
1477	30720	25356	31684	35872	
1478	30752	25340	31688	35872	
1479	30784	25368	31724	35888	
1480	30880	25348	31700	35888	
1481	30880	25304	31692	35880	
1482	30912	25352	31700	35900	
1483	30928	25332	31680	35928	
1484	30864	25360	31664	35924	
1485	30864	25364	31652	35900	
1486	31008	25384	31648	35896	
1487	30960	25392	31624	35880	
1488	30928	25388	31640	35880	
1489	30928	25408	31660	35900	
1490	30832	25404	31652	35836	
1491	30752	25404	31648	35824	
1492	30688	25400	31660	35780	
1493	30560	25396	31676	35824	
1494	30528	25416	31660	35844	
1495	30560	25416	31672	35860	
1496	30544	25416	31696	35856	
1497	30384	25392	31704	35860	
1498	30288	25420	31696	35896	
1499	30320	25424	31684	35868	
1500	30256	25400	31696	35848	
1501	30272	25428	31704	35856	
1502	30304	25388	31680	35888	
1503	30352	25388	31676	35872	
1504	30512	25408	31688	35896	
1505	30624	25380	31684	35860	
1506	30752	25380	31704	35880	
1507	30992	25364	31676	35876	
1508	31152	25376	31660	35800	
1509	31376	25388	31684	35808	
1510	31648	25360	31696	35856	
1511	31824	25368	31688	35900	
1512	31968	25372	31708	35916	
1513	32128	25368	31732	35888	
1514	32224	25384	31728	35916	
1515	32256	25376	31716	35924	
1516	32320	25380	31720	35948	
1517	32400	25392	31736	35936	
1518	32464	25364	31716	35912	
1519	32480	25356	31752	35904	
1520	32592	25356	31708	35916	
1521	32624	25368	31720	35828	
1522	32640	25348	31732	35792	
1523	32704	25336	31728	35816	
1524	32752	25352	31732	35780	
1525	32800	25340	31752	35796	
1526	32736	25336	31744	35808	
1527	32640	25328	31764	35860	
1528	32544	25360	31756	35856	
1529	32464	25368	31732	35812	
1530	32384	25368	31764	35836	
1531	32224	25404	31736	35852	
1532	32288	25388	31768	35900	
1533	32192	25396	31736	35896	
1534	32080	25384	31736	35932	
1535	31792	25368	31740	35916	
1536	31616	25420	31728	35952	
1537	31472	25376	31732	35940	
1538	31328	25380	31720	35932	
1539	31168	25396	31724	35976	
1540	31248	25356	31752	35944	
1541	31280	25372	31716	35956	
1542	31376	25400	31720	35948	
1543	31536	25424	31728	35972	
1544	31808	25416	31740	35924	
1545	31968	25420	31704	35956	
1546	32128	25408	31712	35944	
1547	32272	25424	31736	35924	
1548	32464	25376	31732	35956	
1549	32656	25436	31744	35900	
1550	32800	25420	31712	35908	
1551	32992	25444	31712	35920	
1552	33200	25408	31696	35904	
1553	33360	25416	31748	35904	
1554	33472	25436	31728	35904	
1555	33632	25420	31752	35896	
1556	33712	25412	31748	35904	
1557	33888	25408	31732	35928	
1558	33920	25416	31760	35864	
1559	34016	25412	31756	35864	
1560	34080	25412	31744	35884	
1561	34112	25408	31764	35852	
1562	34096	25412	31748	35888	
1563	34080	25384	31744	35908	
1564	34096	25400	31768	35880	
1565	34016	25412	31748	35872	
1566	33936	25396	31744	35904	
1567	33904	25400	31740	35828	
1568	33792	25384	31756	35884	
1569	33808	25412	31772	35820	
1570	34112	25420	31752	35832	
1571	34368	25400	31736	35880	
1572	34352	25384	31752	35848	
1573	33760	25412	31720	35888	
1574	32816	25404	31756	35848	
1575	32784	25392	31728	35816	
1576	33392	25400	31720	35812	
1577	33904	25400	31732	35808	
1578	34096	25392	31740	35848	
1579	33856	25380	31756	35848	
1580	34112	25380	31724	35856	
1581	35184	25388	31728	35852	
1582	36128	25364	31732	35876	
1583	36464	25388	31744	35872	
1584	36480	25348	31740	35876	
1585	36672	25380	31752	35920	
1586	37392	25360	31748	35912	
1587	38384	25400	31752	35940	
1588	40448	25412	31768	36008	
1589	42752	25404	31800	36040	
1590	43728	25380	31832	36060	
1591	43216	25368	31844	36024	
1592	42016	25384	31860	35956	
1593	40480	25372	31864	35796	
1594	38832	25376	31780	35812	
1595	37152	25368	31656	35848	
1596	35536	25336	31568	35908	
1597	34336	25264	31496	35892	
1598	33136	25264	31512	35828	
1599	32160	25328	31504	35724	
1600	31232	25372	31576	35676	
1601	30624	25404	31672	35712	
1602	30160	25468	31700	35712	
1603	29920	25488	31780	35672	
1604	29728	25496	31772	35644	
1605	29696	25508	31700	35652	
1606	29744	25520	31620	35668	
1607	29680	25500	31572	35792	
1608	29712	25472	31612	35892	
1609	29792	25464	31696	35876	
1610	29824	25468	31772	35944	
1611	29760	25460	31804	35988	
1612	29744	25448	31800	36044	
1613	29776	25404	31800	36084	
1614	29776	25444	31800	36056	
1615	29904	25364	31780	36156	
1616	29920	25376	31716	36096	
1617	30000	25416	31708	36044	
1618	30064	25404	31684	35976	
1619	30096	25376	31652	35872	
1620	30128	25376	31656	35776	
1621	30208	25332	31648	35640	
1622	30272	25308	31632	35544	
1623	30336	25280	31640	35552	
1624	30320	25316	31620	35508	
1625	30288	25328	31644	35488	
1626	30336	25340	31652	35528	
1627	30368	25328	31684	35520	
1628	30384	25376	31700	35616	
1629	30384	25368	31704	35676	
1630	30432	25404	31700	35728	
1631	30480	25456	31688	35772	
1632	30432	25448	31720	35800	
1633	30384	25456	31724	35852	
1634	30352	25444	31736	35840	
1635	30304	25408	31680	35852	
1636	30320	25420	31708	35888	
1637	30368	25388	31680	35892	
1638	30352	25376	31672	35852	
1639	30368	25376	31704	35904	
1640	30464	25384	31708	35856	
1641	30416	25348	31748	35880	
1642	30448	25344	31712	35884	
1643	30448	25348	31728	35892	
1644	30464	25376	31720	35852	
1645	30512	25380	31692	35856	
1646	30656	25376	31740	35884	
1647	30704	25300	31704	35920	
1648	30736	25308	31724	35920	
1649	30784	25272	31740	35908	
1650	30848	25288	31724	35956	
1651	30912	25344	31696	35948	
1652	30960	25356	31652	35920	
1653	30976	25368	31640	35884	
1654	30880	25360	31648	35816	
1655	30912	25368	31620	35788	
1656	30864	25340	31656	35800	
1657	30784	25364	31636	35768	
1658	30736	25376	31664	35768	
1659	30656	25392	31656	35780	
1660	30512	25408	31660	35776	
1661	30464	25388	31648	35792	
1662	30384	25428	31656	35836	
1663	30288	25428	31648	35836	
1664	30224	25396	31684	35832	
1665	30144	25408	31684	35856	
1666	30208	25388	31696	35864	
1667	30240	25388	31696	35856	
1668	30320	25396	31688	35872	
1669	30464	25380	31688	35868	
1670	30640	25376	31688	35832	
1671	30784	25372	31700	35808	
1672	30976	25340	31696	35820	
1673	31152	25332	31704	35796	
1674	31328	25340	31684	35816	
1675	31584	25312	31648	35776	
1676	31744	25316	31664	35776	
1677	31888	25352	31688	35780	
1678	32016	25352	31716	35816	
1679	32176	25340	31680	35824	
1680	32320	25348	31716	35816	
1681	32384	25348	31712	35888	
1682	32528	25372	31704	35868	
1683	32640	25344	31720	35908	
1684	32640	25336	31720	35880	
1685	32752	25356	31688	35820	
1686	32784	25328	31692	35796	
1687	32800	25284	31688	35804	
1688	32832	25292	31680	35724	
1689	32816	25352	31684	35728	
1690	32896	25328	31684	35708	
1691	32976	25316	31708	35728	
1692	32832	25284	31712	35728	
1693	32768	25312	31724	35776	
1694	32672	25300	31724	35780	
1695	32560	25328	31676	35760	
1696	32528	25324	31684	35784	
1697	32304	25356	31708	35820	
1698	32224	25364	31692	35820	
1699	32240	25368	31712	35828	
1700	32160	25356	31712	35868	
1701	31968	25360	31692	35848	
1702	31712	25360	31704	35824	
1703	31552	25364	31696	35900	
1704	31408	25384	31716	35852	
1705	31216	25364	31724	35868	
1706	31280	25376	31692	35900	
1707	31280	25388	31712	35888	
1708	31360	25372	31732	35872	
1709	31408	25376	31676	35916	
1710	31696	25384	31664	35868	
1711	31920	25368	31676	35848	
1712	32128	25384	31696	35868	
1713	32256	25388	31692	35884	
1714	32416	25376	31664	35872	
1715	32576	25360	31688	35788	
1716	32704	25364	31672	35816	
1717	32928	25360	31672	35832	
1718	33184	25372	31684	35796	
1719	33472	25408	31692	35808	
1720	33712	25372	31648	35808	
1721	33728	25348	31684	35832	
1722	33856	25332	31684	35828	
1723	34000	25324	31672	35796	
1724	34160	25336	31652	35812	
1725	34208	25360	31696	35796	
1726	34272	25344	31672	35812	
1727	34320	25352	31680	35824	
1728	34320	25368	31680	35792	
1729	34192	25336	31688	35836	
1730	34160	25344	31700	35800	
1731	34128	25352	31688	35788	
1732	34032	25360	31672	35784	
1733	33952	25292	31692	35756	
1734	33984	25360	31684	35800	
1735	33984	25336	31684	35776	
1736	34256	25336	31680	35760	
1737	34544	25368	31676	35740	
1738	34656	25336	31692	35756	
1739	34288	25360	31684	35744	
1740	33696	25352	31664	35752	
1741	33712	25324	31692	35772	
1742	34304	25340	31696	35724	
1743	34944	25340	31692	35716	
1744	35056	25356	31704	35768	
1745	34976	25356	31700	35776	
1746	34944	25368	31704	35780	
1747	35728	25344	31704	35804	
1748	36432	25352	31696	35824	
1749	36640	25340	31712	35820	
1750	36480	25348	31692	35832	
1751	36384	25304	31700	35828	
1752	36640	25388	31716	35888	
1753	37312	25332	31724	35916	
1754	38912	25308	31740	35976	
1755	41760	25344	31784	35964	
1756	43008	25344	31788	35928	
1757	42704	25308	31852	35820	
1758	41664	25276	31832	35708	
1759	40112	25256	31800	35672	
1760	38416	25236	31732	35692	
1761	36688	25172	31652	35736	
1762	35136	25188	31544	35744	
1763	33904	25192	31460	35696	
1764	32832	25176	31440	35556	
1765	31824	25288	31460	35536	
1766	31120	25324	31524	35560	
1767	30528	25364	31572	35604	
1768	30208	25412	31660	35596	
1769	30032	25472	31680	35552	
1770	30000	25464	31720	35512	
1771	29904	25444	31676	35572	
1772	29888	25388	31616	35700	
1773	29808	25464	31560	35784	
1774	29904	25420	31620	35792	
1775	29872	25396	31724	35884	
1776	29888	25424	31772	35880	
1777	29872	25420	31756	35852	
1778	29872	25404	31744	35888	
1779	29888	25368	31744	35940	
1780	29888	25368	31772	35952	
1781	29920	25348	31776	35908	
1782	29952	25368	31760	35908	
1783	30000	25380	31736	35820	
1784	30080	25376	31680	35796	
1785	30160	25332	31724	35744	
1786	30160	25272	31680	35704	
1787	30224	25220	31684	35668	
1788	30240	25248	31668	35616	
1789	30208	25256	31616	35560	
1790	30256	25244	31628	35560	
1791	30240	25220	31564	35600	
1792	30256	25240	31620	35600	
1793	30320	25260	31644	35600	
1794	30288	25312	31652	35608	
1795	30256	25340	31656	35660	
1796	30208	25372	31648	35632	
1797	30144	25396	31700	35604	
1798	30160	25368	31676	35660	
1799	30160	25372	31672	35668	
1800	30176	25372	31644	35704	
1801	30144	25376	31672	35716	
1802	30176	25384	31664	35732	
1803	30240	25440	31612	35768	
1804	30192	25472	31564	35744	
1805	30192	25388	31596	35744	
1806	30208	25408	31628	35796	
1807	30208	25388	31672	35860	
1808	30272	25328	31732	35840	
1809	30256	25312	31732	35904	
1810	30272	25316	31736	35904	
1811	30320	25324	31716	35920	
1812	30352	25288	31720	35916	
1813	30400	25328	31692	35912	
1814	30432	25268	31708	35896	
1815	30464	25232	31688	35912	
1816	30480	25224	31676	35920	
1817	30592	25236	31696	35896	
1818	30672	25208	31652	35864	
1819	30640	25252	31640	35832	
1820	30784	25240	31612	35820	
1821	30704	25300	31608	35760	
1822	30704	25296	31576	35736	
1823	30672	25304	31596	35676	
1824	30704	25292	31588	35672	
1825	30768	25320	31628	35696	
1826	30608	25360	31608	35724	
1827	30480	25348	31608	35696	
1828	30448	25380	31628	35736	
1829	30416	25380	31620	35732	
1830	30416	25412	31652	35776	
1831	30400	25384	31632	35760	
1832	30512	25400	31664	35768	
1833	30576	25376	31664	35792	
1834	30640	25364	31648	35796	
1835	30832	25360	31664	35760	
1836	30896	25364	31676	35744	
1837	31008	25324	31684	35752	
1838	31168	25312	31696	35728	
1839	31392	25308	31672	35708	
1840	31616	25368	31664	35736	
1841	31840	25360	31648	35668	
1842	31984	25328	31676	35696	
1843	32144	25360	31688	35736	
1844	32176	25408	31676	35700	
1845	32304	25400	31660	35648	
1846	32400	25336	31680	35656	
1847	32480	25328	31696	35760	
1848	32544	25300	31716	35804	
1849	32672	25308	31700	35848	
1850	32768	25288	31700	35892	
1851	32736	25272	31740	35912	
1852	32736	25280	31716	35852	
1853	32672	25316	31716	35828	
1854	32768	25304	31716	35796	
1855	32864	25312	31676	35744	
1856	32880	25292	31688	35744	
1857	32912	25256	31712	35688	
1858	32944	25224	31720	35740	
1859	32848	25256	31736	35724	
1860	32688	25320	31696	35716	
1861	32608	25264	31716	35764	
1862	32464	25284	31716	35780	
1863	32400	25312	31712	35780	
1864	32352	25300	31696	35792	
1865	32288	25336	31696	35792	
1866	32288	25336	31700	35780	
1867	32080	25344	31696	35788	
1868	31888	25344	31700	35824	
1869	31632	25312	31728	35792	
1870	31472	25332	31696	35816	
1871	31344	25352	31676	35816	
1872	31248	25324	31688	35824	
1873	31280	25364	31684	35820	
1874	31248	25348	31704	35824	
1875	31280	25352	31680	35848	
1876	31328	25364	31704	35832	
1877	31728	25416	31656	35776	
1878	31920	25372	31688	35772	
1879	32096	25360	31700	35780	
1880	32288	25328	31724	35800	
1881	32480	25340	31720	35820	
1882	32688	25336	31720	35812	
1883	32816	25332	31704	35824	
1884	33072	25356	31700	35848	
1885	33200	25376	31712	35804	
1886	33472	25368	31684	35780	
1887	33648	25368	31680	35808	
1888	33872	25368	31672	35776	
1889	34032	25360	31684	35760	
1890	34080	25340	31728	35764	
1891	34160	25356	31692	35796	
1892	34144	25360	31700	35788	
1893	34176	25368	31688	35792	
1894	34128	25364	31696	35784	
1895	34096	25352	31700	35800	
1896	33936	25336	31692	35764	
1897	33904	25348	31684	35720	
1898	33920	25352	31684	35760	
1899	33888	25356	31720	35764	
1900	33968	25380	31680	35724	
1901	33984	25376	31668	35704	
1902	34208	25368	31688	35728	
1903	34512	25352	31692	35680	
1904	34768	25356	31708	35692	
1905	34480	25356	31660	35752	
1906	33920	25348	31664	35672	
1907	33808	25364	31672	35680	
1908	34448	25336	31684	35672	
1909	35120	25368	31684	35712	
1910	35280	25340	31692	35728	
1911	35056	25344	31688	35684	
1912	34864	25312	31684	35740	
1913	35360	25356	31676	35784	
1914	36064	25336	31684	35768	
1915	36480	25304	31688	35820	
1916	36176	25316	31700	35872	
1917	35808	25308	31692	35888	
1918	35952	25340	31696	35924	
1919	36672	25328	31676	35972	
1920	38048	25344	31708	36000	
1921	40752	25332	31736	35988	
1922	42592	25324	31788	35908	
1923	42736	25324	31824	35828	
1924	41808	25312	31856	35740	
1925	40368	25364	31884	35688	
1926	38688	25292	31828	35660	
1927	37040	25220	31804	35644	
1928	35552	25212	31748	35744	
1929	34224	25156	31680	35716	
1930	33104	25176	31580	35652	
1931	32128	25192	31524	35544	
1932	31344	25288	31440	35624	
1933	30784	25348	31432	35692	
1934	30384	25380	31436	35768	
1935	30096	25452	31528	35700	
1936	30016	25452	31656	35636	
1937	30016	25444	31684	35600	
1938	30000	25448	31724	35652	
1939	30032	25416	31700	35708	
1940	30048	25396	31668	35728	
1941	30000	25364	31728	35760	
1942	30080	25384	31716	35792	
1943	30144	25356	31752	35828	
1944	30144	25360	31756	35860	
1945	30208	25356	31760	35892	
1946	30192	25316	31768	35828	
1947	30224	25360	31780	35852	
1948	30208	25340	31748	35816	
1949	30192	25300	31768	35824	
1950	30256	25352	31736	35812	
1951	30272	25344	31760	35720	
1952	30336	25284	31768	35708	
1953	30384	25296	31760	35688	
1954	30496	25260	31760	35640	
1955	30528	25272	31732	35628	
1956	30544	25244	31744	35600	
1957	30544	25192	31720	35580	
1958	30608	25284	31632	35516	
1959	30560	25228	31576	35528	
1960	30576	25280	31612	35540	
1961	30528	25316	31632	35624	
1962	30512	25340	31636	35576	
1963	30480	25352	31664	35596	
1964	30448	25384	31688	35564	
1965	30480	25424	31700	35580	
1966	30480	25428	31708	35560	
1967	30448	25440	31716	35576	
1968	30480	25440	31712	35616	
1969	30496	25424	31692	35616	
1970	30432	25420	31652	35644	
1971	30448	25404	31708	35768	
1972	30400	25400	31684	35740	
1973	30384	25388	31704	35716	
1974	30416	25376	31744	35776	
1975	30432	25332	31748	35796	
1976	30560	25320	31748	35868	
1977	30592	25260	31756	35916	
1978	30576	25272	31756	35876	
1979	30672	25252	31744	35868	
1980	30768	25244	31752	35868	
1981	30800	25248	31744	35908	
1982	30928	25220	31708	35852	
1983	31056	25232	31684	35896	
1984	31168	25208	31668	35812	
1985	31200	25212	31652	35864	
1986	31248	25248	31600	35796	
1987	31104	25236	31596	35800	
1988	31072	25260	31604	35788	
1989	31072	25336	31612	35700	
1990	31008	25340	31652	35712	
1991	30992	25324	31620	35696	
1992	30912	25344	31628	35712	
1993	30912	25344	31608	35668	
1994	30816	25340	31664	35684	
1995	30752	25364	31648	35744	
1996	30704	25364	31656	35752	
1997	30704	25352	31648	35740	
1998	30688	25344	31648	35748	
1999	30672	25368	31668	35764	
2000	30752	25320	31660	35772	
2001	30848	25332	31660	35724	
2002	30976	25328	31676	35768	
2003	31104	25320	31668	35716	
2004	31248	25344	31676	35724	
2005	31376	25292	31704	35744	
2006	31600	25296	31668	35720	
2007	31776	25284	31648	35684	
2008	31856	25288	31640	35680	
2009	32048	25368	31648	35644	
2010	32128	25356	31656	35644	
2011	32224	25348	31692	35644	
2012	32384	25324	31704	35664	
2013	32448	25304	31716	35720	
2014	32560	25288	31728	35760	
2015	32608	25304	31708	35792	
2016	32592	25324	31684	35836	
2017	32640	25292	31692	35820	
2018	32736	25284	31680	35840	
2019	32736	25268	31692	35824	
2020	32752	25248	31712	35792	
2021	32768	25244	31728	35748	
2022	32720	25236	31724	35732	
2023	32720	25296	31704	35720	
2024	32736	25260	31716	35732	
2025	32704	25272	31720	35704	
2026	32608	25280	31732	35720	
2027	32544	25256	31740	35680	
2028	32496	25288	31708	35676	
2029	32368	25312	31700	35672	
2030	32176	25328	31700	35676	
2031	32048	25320	31724	35696	
2032	32064	25348	31696	35724	
2033	32080	25348	31744	35748	
2034	32016	25312	31704	35744	
2035	31728	25320	31728	35744	
2036	31552	25284	31744	35776	
2037	31328	25308	31744	35808	
2038	31104	25308	31740	35788	
2039	30976	25296	31744	35784	
2040	30960	25292	31768	35812	
2041	31120	25340	31736	35820	
2042	31152	25288	31732	35856	
2043	31280	25328	31724	35864	
2044	31472	25340	31700	35816	
2045	31760	25360	31752	35856	
2046	31888	25348	31740	35808	
2047	32048	25300	31696	35796	
2048	32224	25336	31728	35804	
2049	32496	25348	31744	35796	
2050	32656	25356	31732	35796	
2051	32784	25364	31728	35772	
2052	32928	25364	31732	35768	
2053	33184	25380	31704	35764	
2054	33392	25364	31732	35776	
2055	33616	25360	31724	35804	
2056	33872	25364	31756	35784	
2057	33968	25332	31728	35776	
2058	34096	25372	31692	35760	
2059	34112	25356	31736	35744	
2060	34112	25372	31688	35756	
2061	34176	25352	31716	35756	
2062	34112	25368	31724	35708	
2063	33984	25360	31760	35684	
2064	33952	25308	31728	35688	
2065	33872	25304	31724	35700	
2066	33904	25308	31748	35720	
2067	33808	25340	31720	35736	
2068	33744	25324	31720	35764	
2069	33904	25324	31744	35748	
2070	34256	25352	31728	35760	
2071	34640	25328	31728	35752	
2072	34624	25340	31668	35772	
2073	34160	25352	31688	35800	
2074	33696	25348	31696	35776	
2075	34160	25372	31704	35724	
2076	34672	25340	31688	35772	
2077	34880	25352	31736	35788	
2078	34560	25360	31732	35748	
2079	34176	25336	31736	35772	
2080	34432	25324	31724	35800	
2081	35040	25336	31708	35784	
2082	35664	25328	31724	35848	
2083	35504	25284	31724	35820	
2084	35152	25348	31696	35828	
2085	35072	25340	31700	35912	
2086	35856	25324	31724	35908	
2087	37024	25316	31724	35948	
2088	39600	25296	31716	35964	
2089	42224	25336	31728	35976	
2090	42832	25316	31772	35968	
2091	42304	25332	31840	35900	
2092	41056	25336	31876	35724	
2093	39456	25364	31872	35680	
2094	37808	25352	31856	35624	
2095	36240	25308	31852	35668	
2096	34928	25244	31828	35656	
2097	33824	25176	31772	35664	
2098	32752	25140	31688	35576	
2099	31808	25188	31596	35540	
2100	31152	25288	31500	35576	
2101	30736	25356	31440	35696	
2102	30528	25416	31432	35804	
2103	30416	25448	31496	35800	
2104	30336	25452	31588	35768	
2105	30304	25476	31660	35696	
2106	30272	25432	31688	35704	
2107	30224	25440	31724	35740	
2108	30192	25412	31760	35768	
2109	30160	25384	31772	35816	
2110	30192	25376	31776	35852	
2111	30256	25360	31768	35900	
2112	30288	25336	31788	35920	
2113	30304	25344	31824	35908	
2114	30416	25352	31820	35888	
2115	30448	25328	31816	35876	
2116	30432	25332	31804	35864	
2117	30480	25336	31788	35816	
2118	30512	25332	31812	35760	
2119	30512	25276	31792	35772	
2120	30560	25308	31780	35716	
2121	30592	25228	31772	35704	
2122	30592	25212	31740	35648	
2123	30704	25212	31744	35612	
2124	30624	25208	31696	35608	
2125	30656	25252	31700	35600	
2126	30672	25264	31628	35612	
2127	30576	25320	31660	35608	
2128	30592	25316	31680	35652	
2129	30672	25376	31692	35660	
2130	30592	25400	31756	35632	
2131	30576	25396	31744	35592	
2132	30576	25396	31740	35628	
2133	30608	25392	31756	35644	
2134	30640	25376	31772	35636	
2135	30640	25396	31732	35688	
2136	30704	25400	31736	35716	
2137	30720	25432	31696	35692	
2138	30752	25416	31708	35712	
2139	30768	25424	31712	35756	
2140	30800	25392	31720	35780	
2141	30784	25384	31740	35796	
2142	30848	25368	31740	35824	
2143	30848	25364	31784	35876	
2144	30864	25336	31796	35912	
2145	30912	25324	31788	35896	
2146	30944	25340	31792	35884	
2147	31008	25296	31776	35924	
2148	31104	25280	31752	35916	
2149	31184	25256	31764	35900	
2150	31232	25268	31736	35924	
2151	31280	25260	31744	35876	
2152	31376	25228	31700	35908	
2153	31376	25304	31704	35940	
2154	31312	25312	31692	35876	
2155	31296	25360	31656	35852	
2156	31248	25360	31652	35756	
2157	31280	25360	31664	35772	
2158	31280	25372	31696	35688	
2159	31200	25380	31708	35732	
2160	31088	25376	31720	35704	
2161	31008	25380	31684	35700	
2162	30864	25396	31744	35736	
2163	30736	25388	31740	35728	
2164	30656	25380	31712	35756	
2165	30624	25364	31704	35772	
2166	30752	25400	31684	35764	
2167	30752	25364	31720	35780	
2168	30800	25352	31704	35780	
2169	30896	25368	31704	35744	
2170	31040	25336	31736	35776	
2171	31200	25336	31728	35748	
2172	31280	25304	31692	35752	
2173	31440	25356	31700	35720	
2174	31600	25312	31716	35716	
2175	31824	25320	31680	35708	
2176	31952	25332	31708	35692	
2177	32032	25368	31720	35696	
2178	32176	25408	31716	35684	
2179	32304	25360	31732	35720	
2180	32272	25360	31732	35752	
2181	32320	25328	31748	35788	
2182	32416	25344	31736	35824	
2183	32464	25344	31712	35840	
2184	32624	25300	31744	35904	
2185	32704	25304	31708	35884	
2186	32720	25264	31696	35848	
2187	32720	25320	31712	35832	
2188	32832	25316	31716	35824	
2189	32848	25236	31712	35804	
2190	32864	25292	31736	35792	
2191	32912	25296	31752	35756	
2192	32912	25280	31736	35760	
2193	32912	25316	31720	35736	
2194	32816	25304	31736	35712	
2195	32624	25332	31752	35720	
2196	32560	25328	31720	35740	
2197	32464	25332	31732	35744	
2198	32256	25368	31708	35720	
2199	32128	25360	31736	35732	
2200	32064	25352	31712	35716	
2201	32112	25368	31720	35744	
2202	32016	25348	31708	35740	
2203	31792	25340	31752	35768	
2204	31600	25336	31744	35804	
2205	31408	25344	31732	35820	
2206	31264	25340	31732	35824	
2207	31184	25360	31748	35840	
2208	31152	25328	31712	35896	
2209	31120	25304	31752	35888	
2210	31136	25344	31732	35868	
2211	31264	25312	31744	35888	
2212	31472	25332	31716	35892	
2213	31616	25364	31708	35900	
2214	31824	25336	31720	35936	
2215	31952	25288	31748	35876	
2216	32192	25356	31696	35852	
2217	32368	25360	31740	35852	
2218	32528	25368	31708	35824	
2219	32688	25364	31736	35828	
2220	32896	25344	31716	35792	
2221	33104	25352	31716	35796	
2222	33376	25360	31716	35776	
2223	33600	25332	31700	35792	
2224	33808	25360	31696	35784	
2225	33920	25372	31724	35784	
2226	34096	25364	31688	35772	
2227	34080	25344	31712	35804	
2228	34176	25344	31728	35812	
2229	34160	25364	31728	35784	
2230	34064	25348	31712	35756	
2231	34096	25340	31700	35784	
2232	34048	25360	31712	35784	
2233	33952	25388	31720	35796	
2234	33936	25388	31708	35808	
2235	33952	25372	31716	35760	
2236	33968	25372	31728	35792	
2237	34096	25348	31704	35784	
2238	34544	25368	31748	35780	
2239	34864	25352	31744	35784	
2240	34672	25348	31732	35792	
2241	34112	25360	31736	35780	
2242	33840	25364	31724	35776	
2243	34208	25364	31736	35792	
2244	34496	25340	31724	35780	
2245	34496	25348	31756	35788	
2246	34064	25356	31748	35752	
2247	33520	25380	31748	35792	
2248	34000	25352	31744	35788	
2249	34576	25356	31736	35812	
2250	34944	25340	31760	35852	
2251	34592	25324	31752	35880	
2252	34224	25336	31732	35948	
2253	34416	25312	31740	35980	
2254	35488	25340	31728	35980	
2255	37120	25352	31732	36032	
2256	40048	25284	31732	36116	
2257	42272	25348	31740	36080	
2258	42608	25336	31788	35988	
2259	41968	25308	31848	35896	
2260	40624	25348	31884	35724	
2261	39024	25368	31880	35664	
2262	37504	25360	31860	35652	
2263	36000	25268	31892	35676	
2264	34816	25252	31832	35620	
2265	33776	25196	31760	35580	
2266	32736	25204	31680	35516	
2267	32032	25256	31636	35552	
2268	31344	25296	31540	35608	
2269	30944	25352	31496	35704	
2270	30640	25412	31500	35704	
2271	30576	25472	31532	35712	
2272	30592	25508	31552	35720	
2273	30592	25512	31548	35756	
2274	30512	25452	31636	35788	
2275	30480	25428	31664	35768	
2276	30512	25428	31724	35776	
2277	30544	25420	31752	35796	
2278	30560	25396	31764	35820	
2279	30512	25376	31776	35928	
2280	30544	25396	31796	35932	
2281	30592	25364	31792	35936	
2282	30560	25328	31820	35940	
2283	30624	25312	31828	35944	
2284	30592	25276	31824	35892	
2285	30624	25276	31804	35868	
2286	30672	25288	31816	35816	
2287	30576	25276	31788	35820	
2288	30544	25236	31788	35780	
2289	30560	25184	31796	35788	
2290	30656	25204	31780	35748	
2291	30672	25216	31752	35744	
2292	30704	25192	31744	35700	
2293	30704	25216	31724	35676	
2294	30784	25228	31668	35688	
2295	30752	25284	31648	35644	
2296	30768	25308	31632	35700	
2297	30832	25320	31668	35680	
2298	30832	25352	31688	35672	
2299	30816	25384	31720	35680	
2300	30832	25404	31740	35644	
2301	30848	25392	31760	35676	
2302	30816	25384	31788	35684	
2303	30880	25416	31796	35692	
2304	30896	25384	31780	35664	
2305	30864	25368	31780	35728	
2306	30976	25316	31800	35776	
2307	30960	25356	31792	35840	
2308	30944	25292	31784	35924	
2309	30992	25348	31788	35960	
2310	31088	25332	31764	35968	
2311	31104	25364	31772	35972	
2312	31216	25348	31764	35976	
2313	31232	25316	31788	36008	
2314	31248	25300	31776	35952	
2315	31312	25308	31776	35916	
2316	31392	25320	31784	35884	
2317	31424	25312	31776	35820	
2318	31472	25292	31780	35800	
2319	31424	25352	31732	35776	
2320	31344	25288	31672	35776	
2321	31392	25332	31684	35740	
2322	31376	25360	31684	35764	
2323	31312	25336	31712	35748	
2324	31136	25356	31668	35764	
2325	31088	25344	31632	35736	
2326	31008	25372	31656	35764	
2327	30928	25376	31656	35732	
2328	30736	25384	31688	35784	
2329	30592	25396	31696	35752	
2330	30480	25376	31692	35780	
2331	30416	25392	31716	35760	
2332	30448	25388	31700	35800	
2333	30400	25392	31732	35768	
2334	30432	25420	31692	35756	
2335	30512	25424	31716	35764	
2336	30672	25412	31656	35732	
2337	30736	25404	31700	35736	
2338	30864	25364	31700	35720	
2339	30928	25376	31684	35716	
2340	31120	25372	31700	35736	
2341	31280	25304	31704	35688	
2342	31488	25364	31720	35740	
2343	31648	25336	31680	35708	
2344	31760	25364	31692	35712	
2345	31904	25356	31716	35736	
2346	31984	25360	31736	35728	
2347	32144	25328	31712	35752	
2348	32224	25368	31684	35740	
2349	32336	25348	31704	35796	
2350	32336	25368	31708	35832	
2351	32384	25360	31704	35820	
2352	32384	25312	31684	35848	
2353	32416	25248	31668	35824	
2354	32448	25252	31680	35832	
2355	32496	25240	31728	35828	
2356	32528	25248	31744	35808	
2357	32624	25252	31736	35792	
2358	32592	25240	31736	35760	
2359	32640	25312	31724	35716	
2360	32688	25296	31748	35704	
2361	32688	25292	31744	35732	
2362	32784	25280	31748	35688	
2363	32768	25312	31732	35712	
2364	32704	25320	31728	35704	
2365	32592	25336	31700	35688	
2366	32448	25324	31684	35684	
2367	32320	25316	31708	35708	
2368	32256	25280	31696	35756	
2369	32160	25276	31704	35748	
2370	32112	25276	31740	35784	
2371	32096	25284	31720	35800	
2372	32064	25284	31704	35768	
2373	31888	25328	31704	35828	
2374	31680	25312	31736	35816	
2375	31456	25344	31716	35772	
2376	31264	25332	31700	35816	
2377	31184	25344	31688	35792	
2378	31216	25340	31688	35776	
2379	31248	25308	31700	35800	
2380	31328	25312	31652	35756	
2381	31392	25340	31672	35796	
2382	31616	25380	31684	35796	
2383	31888	25352	31660	35812	
2384	31984	25364	31660	35780	
2385	32224	25380	31700	35820	
2386	32368	25352	31688	35820	
2387	32528	25364	31680	35792	
2388	32720	25352	31688	35732	
2389	32912	25356	31652	35772	
2390	33120	25284	31700	35788	
2391	33312	25272	31680	35864	
2392	33536	25252	31660	35880	
2393	33728	25364	31668	35812	
2394	33808	25348	31648	35792	
2395	33872	25384	31656	35736	
2396	33936	25380	31660	35724	
2397	33952	25292	31684	35744	
2398	33936	25352	31684	35724	
2399	34000	25324	31680	35732	
2400	33984	25344	31640	35716	
2401	33872	25364	31644	35700	
2402	33856	25376	31652	35708	
2403	33824	25372	31664	35676	
2404	33760	25376	31664	35700	
2405	33776	25360	31656	35688	
2406	33904	25336	31652	35680	
2407	34272	25340	31660	35680	
2408	34736	25352	31636	35724	
2409	34688	25352	31656	35728	
2410	34080	25332	31676	35688	
2411	33520	25336	31664	35692	
2412	33808	25312	31652	35688	
2413	34208	25344	31656	35696	
2414	34320	25356	31680	35732	
2415	34128	25284	31668	35680	
2416	33680	25332	31660	35704	
2417	33824	25332	31676	35740	
2418	34544	25328	31664	35756	
2419	35152	25344	31684	35808	
2420	35152	25344	31672	35792	
2421	34912	25300	31672	35804	
2422	34992	25348	31688	35844	
2423	35952	25316	31692	35892	
2424	37184	25324	31708	35968	
2425	39824	25332	31716	35996	
2426	42272	25344	31788	36048	
2427	43040	25316	31812	36044	
2428	42448	25364	31808	35880	
2429	41248	25340	31808	35692	
2430	39696	25364	31796	35556	
2431	38096	25384	31664	35496	
2432	36512	25344	31552	35484	
2433	35184	25192	31500	35584	
2434	34000	25136	31468	35608	
2435	32912	25128	31464	35556	
2436	31968	25228	31464	35580	
2437	31280	25316	31492	35628	
2438	30800	25356	31564	35692	
2439	30560	25392	31580	35712	
2440	30368	25428	31660	35644	
2441	30288	25476	31696	35572	
2442	30288	25500	31664	35576	
2443	30240	25488	31620	35716	
2444	30176	25444	31596	35764	
2445	30144	25400	31596	35800	
2446	30144	25400	31684	35856	
2447	30224	25376	31704	35876	
2448	30272	25388	31732	35888	
2449	30336	25356	31740	35940	
2450	30400	25372	31752	35936	
2451	30416	25376	31764	35892	
2452	30432	25360	31772	35900	
2453	30416	25332	31768	35872	
2454	30400	25336	31756	35796	
2455	30464	25352	31680	35780	
2456	30464	25308	31632	35780	
2457	30496	25340	31584	35772	
2458	30560	25364	31560	35724	
2459	30432	25376	31576	35668	
2460	30480	25360	31552	35692	
2461	30528	25312	31604	35620	
2462	30608	25276	31604	35624	
2463	30624	25276	31608	35660	
2464	30736	25252	31632	35652	
2465	30704	25292	31656	35636	
2466	30720	25296	31700	35628	
2467	30688	25308	31680	35632	
2468	30672	25320	31668	35624	
2469	30688	25352	31680	35644	
2470	30688	25392	31660	35612	
2471	30768	25408	31600	35672	
2472	30736	25400	31644	35704	
2473	30768	25392	31648	35748	
2474	30592	25428	31656	35772	
2475	30608	25380	31652	35784	
2476	30592	25400	31700	35828	
2477	30576	25320	31672	35804	
2478	30656	25332	31696	35832	
2479	30672	25316	31704	35816	
2480	30688	25280	31708	35844	
2481	30752	25292	31732	35860	
2482	30800	25304	31704	35804	
2483	30832	25268	31720	35836	
2484	30816	25208	31704	35812	
2485	30848	25260	31692	35804	
2486	30832	25256	31680	35792	
2487	30912	25236	31636	35800	
2488	30944	25272	31652	35788	
2489	30944	25284	31636	35732	
2490	30880	25312	31628	35732	
2491	30800	25340	31624	35728	
2492	30816	25324	31556	35652	
2493	30832	25348	31608	35692	
2494	30768	25360	31640	35672	
2495	30672	25368	31636	35724	
2496	30592	25360	31592	35716	
2497	30544	25400	31616	35720	
2498	30384	25380	31612	35712	
2499	30352	25372	31624	35712	
2500	30304	25376	31632	35740	
2501	30256	25392	31600	35740	
2502	30240	25388	31628	35696	
2503	30240	25384	31632	35748	
2504	30288	25396	31644	35768	
2505	30368	25368	31636	35732	
2506	30544	25368	31656	35700	
2507	30608	25352	31660	35736	
2508	30800	25328	31648	35780	
2509	30960	25316	31652	35748	
2510	31216	25308	31648	35748	
2511	31392	25308	31628	35740	
2512	31632	25328	31652	35672	
2513	31808	25312	31648	35740	
2514	31856	25324	31708	35740	
2515	31936	25316	31672	35756	
2516	32064	25324	31664	35788	
2517	32256	25312	31688	35812	
2518	32304	25332	31680	35800	
2519	32416	25328	31660	35804	
2520	32496	25336	31648	35772	
2521	32512	25328	31652	35796	
2522	32608	25332	31664	35744	
2523	32608	25320	31652	35740	
2524	32720	25320	31644	35708	
2525	32784	25260	31648	35696	
2526	32848	25276	31700	35688	
2527	32944	25260	31664	35668	
2528	33040	25212	31676	35652	
2529	33072	25208	31648	35668	
2530	32976	25212	31684	35676	
2531	32928	25212	31700	35720	
2532	32816	25216	31680	35692	
2533	32672	25252	31688	35700	
2534	32560	25284	31684	35716	
2535	32432	25288	31680	35668	
2536	32528	25332	31684	35720	
2537	32432	25336	31696	35732	
2538	32448	25340	31672	35716	
2539	32464	25352	31672	35764	
2540	32304	25336	31712	35736	
2541	32016	25348	31668	35780	
2542	31792	25352	31672	35788	
2543	31600	25340	31684	35764	
2544	31504	25336	31696	35756	
2545	31424	25328	31664	35764	
2546	31392	25360	31672	35776	
2547	31344	25332	31672	35744	
2548	31392	25344	31684	35784	
2549	31536	25356	31672	35800	
2550	31760	25324	31676	35792	
2551	31984	25324	31676	35732	
2552	32144	25344	31680	35752	
2553	32272	25368	31628	35772	
2554	32416	25360	31676	35740	
2555	32544	25356	31664	35752	
2556	32640	25352	31652	35748	
2557	32800	25364	31664	35732	
2558	33088	25364	31672	35740	
2559	33296	25360	31668	35688	
2560	33456	25352	31676	35748	
2561	33616	25364	31672	35716	
2562	33872	25320	31676	35740	
2563	33984	25308	31684	35680	
2564	34048	25356	31668	35732	
2565	34096	25364	31704	35752	
2566	34112	25336	31688	35712	
2567	34112	25304	31700	35740	
2568	34000	25324	31676	35748	
2569	33984	25324	31680	35736	
2570	33920	25336	31696	35728	
2571	33904	25324	31712	35720	
2572	33792	25344	31704	35752	
2573	33760	25312	31712	35744	
2574	33952	25324	31692	35704	
2575	34176	25344	31672	35700	
2576	34448	25332	31708	35700	
2577	34336	25284	31672	35712	
2578	33744	25300	31676	35676	
2579	32880	25304	31680	35680	
2580	32752	25280	31684	35644	
2581	33280	25320	31640	35664	
2582	33680	25276	31676	35672	
2583	33648	25292	31676	35684	
2584	33344	25296	31684	35660	
2585	33536	25276	31676	35732	
2586	34560	25276	31696	35752	
2587	35504	25308	31672	35688	
2588	35776	25328	31672	35692	
2589	35856	25308	31684	35760	
2590	36048	25308	31716	35760	
2591	36960	25320	31704	35776	
2592	38144	25348	31732	35808	
2593	40528	25332	31744	35872	
2594	42720	25352	31788	35892	
2595	43600	25296	31812	35916	
2596	42992	25340	31832	35852	
2597	41872	25324	31824	35788	
2598	40464	25292	31744	35740	
2599	38832	25244	31628	35776	
2600	37296	25200	31492	35844	
2601	35824	25188	31444	35892	
2602	34640	25224	31472	35644	
2603	33360	25264	31516	35524	
2604	32352	25272	31600	35540	
2605	31504	25364	31656	35580	
2606	30848	25364	31720	35584	
2607	30464	25408	31728	35580	
2608	30144	25440	31696	35500	
2609	30048	25456	31664	35504	
2610	30064	25468	31580	35600	
2611	29920	25468	31556	35672	
2612	29888	25408	31576	35728	
2613	29872	25376	31620	35752	
2614	29904	25372	31716	35788	
2615	30016	25404	31772	35860	
2616	30048	25400	31748	35860	
2617	30096	25404	31792	35880	
2618	30112	25400	31804	35852	
2619	30160	25420	31824	35884	
2620	30144	25420	31812	35900	
2621	30160	25420	31784	35832	
2622	30208	25380	31728	35808	
2623	30208	25352	31676	35744	
2624	30272	25316	31628	35752	
2625	30320	25352	31572	35688	
2626	30352	25336	31556	35648	
2627	30272	25284	31580	35608	
2628	30352	25232	31572	35608	
2629	30400	25224	31568	35564	
2630	30464	25208	31584	35560	
2631	30464	25176	31648	35504	
2632	30464	25188	31660	35564	
2633	30496	25224	31692	35548	
2634	30496	25236	31720	35568	
2635	30480	25272	31728	35628	
2636	30496	25284	31724	35640	
2637	30512	25360	31688	35656	
2638	30624	25388	31672	35668	
2639	30576	25412	31636	35716	
2640	30560	25388	31656	35800	
2641	30624	25392	31656	35796	
2642	30608	25356	31668	35804	
2643	30656	25344	31636	35808	
2644	30592	25320	31688	35776	
2645	30624	25312	31668	35760	
2646	30624	25336	31672	35724	
2647	30560	25304	31700	35712	
2648	30576	25256	31696	35748	
2649	30640	25252	31732	35764	
2650	30608	25216	31732	35808	
2651	30624	25236	31736	35808	
2652	30672	25236	31712	35788	
2653	30656	25284	31684	35812	
2654	30688	25308	31688	35816	
2655	30720	25316	31692	35820	
2656	30768	25276	31664	35796	
2657	30688	25296	31644	35792	
2658	30768	25292	31652	35776	
2659	30704	25320	31640	35732	
2660	30672	25308	31632	35684	
2661	30640	25348	31644	35676	
2662	30672	25332	31656	35728	
2663	30608	25352	31664	35692	
2664	30528	25380	31656	35736	
2665	30528	25380	31688	35688	
2666	30528	25376	31688	35748	
2667	30336	25372	31676	35724	
2668	30320	25372	31696	35768	
2669	30320	25388	31660	35776	
2670	30384	25392	31644	35716	
2671	30352	25372	31684	35772	
2672	30416	25364	31688	35776	
2673	30544	25340	31700	35760	
2674	30640	25328	31668	35752	
2675	30736	25348	31648	35728	
2676	30928	25348	31680	35748	
2677	31072	25324	31676	35716	
2678	31264	25320	31640	35712	
2679	31520	25332	31656	35664	
2680	31696	25316	31664	35664	
2681	31856	25352	31688	35720	
2682	32032	25348	31704	35744	
2683	32224	25352	31708	35748	
2684	32256	25328	31696	35784	
2685	32384	25356	31712	35752	
2686	32464	25316	31704	35752	
2687	32672	25304	31676	35776	
2688	32768	25352	31660	35732	
2689	32784	25340	31688	35732	
2690	32864	25280	31684	35704	
2691	32896	25332	31700	35672	
2692	32912	25260	31676	35628	
2693	33024	25256	31728	35620	
2694	33152	25308	31716	35604	
2695	33152	25284	31660	35628	
2696	33216	25356	31696	35620	
2697	33200	25300	31692	35708	
2698	33184	25220	31724	35708	
2699	33152	25228	31700	35712	
2700	33120	25268	31712	35708	
2701	33072	25316	31684	35692	
2702	32976	25352	31660	35696	
2703	32848	25324	31664	35704	
2704	32688	25352	31676	35712	
2705	32608	25348	31692	35720	
2706	32544	25344	31660	35768	
2707	32464	25332	31660	35776	
2708	32384	25328	31680	35756	
2709	32208	25332	31688	35764	
2710	32048	25360	31672	35768	
2711	31776	25352	31672	35808	
2712	31552	25384	31692	35784	
2713	31440	25380	31684	35788	
2714	31360	25360	31668	35800	
2715	31344	25372	31664	35764	
2716	31360	25352	31632	35732	
2717	31376	25356	31648	35752	
2718	31456	25368	31668	35692	
2719	31520	25388	31664	35728	
2720	31936	25352	31668	35732	
2721	32160	25356	31656	35704	
2722	32384	25356	31656	35736	
2723	32528	25352	31644	35712	
2724	32704	25352	31632	35680	
2725	32768	25340	31660	35732	
2726	32880	25352	31644	35708	
2727	33120	25376	31672	35728	
2728	33296	25364	31656	35752	
2729	33504	25372	31692	35700	
2730	33696	25320	31668	35692	
2731	33872	25356	31688	35720	
2732	34032	25336	31684	35684	
2733	34112	25328	31680	35704	
2734	34192	25360	31680	35708	
2735	34224	25348	31676	35744	
2736	34272	25332	31688	35740	
2737	34208	25352	31712	35756	
2738	34160	25356	31696	35728	
2739	34112	25364	31700	35728	
2740	34000	25344	31708	35696	
2741	33920	25324	31664	35724	
2742	33904	25328	31676	35708	
2743	34000	25340	31644	35684	
2744	34192	25324	31652	35716	
2745	34320	25372	31680	35684	
2746	34288	25276	31664	35692	
2747	33856	25336	31656	35716	
2748	32896	25348	31672	35684	
2749	32672	25348	31672	35676	
2750	33360	25344	31648	35660	
2751	34144	25308	31648	35648	
2752	34496	25352	31644	35648	
2753	34496	25328	31668	35680	
2754	34624	25320	31656	35688	
2755	35600	25336	31664	35700	
2756	36432	25336	31648	35680	
2757	36848	25300	31616	35740	
2758	36896	25308	31648	35744	
2759	36928	25288	31692	35772	
2760	37264	25248	31700	35868	
2761	37984	25192	31708	36048	
2762	39280	25288	31696	36056	
2763	41632	25364	31748	36008	
2764	42928	25372	31780	35988	
2765	42880	25364	31788	35948	
2766	41904	25364	31760	35792	
2767	40464	25388	31688	35696	
2768	38768	25384	31612	35544	
2769	37136	25348	31520	35512	
2770	35600	25232	31484	35500	
2771	34336	25132	31488	35528	
2772	33216	25160	31456	35444	
2773	32144	25216	31504	35420	
2774	31312	25312	31532	35484	
2775	30608	25380	31604	35552	
2776	30144	25436	31668	35596	
2777	29920	25452	31700	35520	
2778	29744	25468	31672	35468	
2779	29600	25448	31612	35528	
2780	29568	25448	31568	35656	
2781	29568	25424	31576	35692	
2782	29616	25404	31680	35776	
2783	29680	25404	31728	35816	
2784	29632	25416	31784	35912	
2785	29712	25420	31756	35912	
2786	29728	25388	31756	35948	
2787	29744	25368	31776	35932	
2788	29760	25332	31772	35892	
2789	29824	25336	31756	35828	
2790	29872	25212	31768	35976	
2791	29952	25228	31692	35988	
2792	29904	25316	31644	35908	
2793	29920	25348	31612	35780	
2794	29984	25368	31568	35612	
2795	29984	25324	31592	35540	
2796	30096	25276	31616	35512	
2797	30096	25272	31588	35416	
2798	30176	25248	31652	35396	
2799	30176	25344	31620	35312	
2800	30160	25368	31660	35284	
2801	30272	25312	31700	35304	
2802	30240	25336	31692	35436	
2803	30256	25288	31720	35524	
2804	30208	25356	31716	35604	
2805	30160	25344	31684	35604	
2806	30160	25392	31684	35616	
2807	30224	25396	31672	35664	
2808	30112	25408	31684	35664	
2809	30144	25408	31700	35740	
2810	30144	25392	31644	35732	
2811	30144	25408	31680	35852	
2812	30064	25380	31672	35884	
2813	30016	25368	31688	35904	
2814	29968	25356	31696	35912	
2815	29952	25316	31692	35900	
2816	30080	25320	31696	35836	
2817	30128	25284	31708	35888	
2818	30128	25248	31688	35852	
2819	30160	25324	31696	35876	
2820	30304	25284	31672	35848	
2821	30288	25300	31648	35864	
2822	30336	25240	31632	35804	
2823	30368	25280	31632	35788	
2824	30384	25284	31608	35776	
2825	30496	25272	31632	35724	
2826	30544	25216	31584	35696	
2827	30560	25240	31560	35668	
2828	30560	25244	31560	35648	
2829	30544	25288	31564	35600	
2830	30560	25264	31572	35640	
2831	30496	25284	31560	35624	
2832	30560	25328	31560	35660	
2833	30512	25332	31616	35620	
2834	30496	25328	31596	35644	
2835	30448	25340	31620	35664	
2836	30336	25376	31632	35612	
2837	30288	25368	31620	35660	
2838	30288	25384	31652	35688	
2839	30352	25380	31652	35656	
2840	30320	25372	31636	35680	
2841	30448	25352	31656	35648	
2842	30576	25320	31640	35652	
2843	30592	25312	31628	35680	
2844	30688	25300	31620	35640	
2845	30864	25264	31620	35648	
2846	30960	25296	31640	35660	
2847	31264	25224	31628	35648	
2848	31552	25228	31616	35620	
2849	31744	25272	31580	35572	
2850	31856	25284	31640	35616	
2851	31952	25304	31636	35632	
2852	32128	25328	31620	35616	
2853	32224	25272	31640	35648	
2854	32320	25260	31632	35636	
2855	32480	25312	31652	35660	
2856	32576	25288	31620	35652	
2857	32576	25240	31652	35680	
2858	32656	25264	31616	35672	
2859	32768	25240	31608	35636	
2860	32832	25224	31572	35644	
2861	32864	25212	31588	35620	
2862	32912	25208	31640	35616	
2863	32976	25236	31612	35592	
2864	33040	25192	31616	35568	
2865	33056	25192	31652	35568	
2866	33104	25212	31628	35528	
2867	33136	25216	31632	35596	
2868	33184	25204	31596	35612	
2869	33248	25236	31628	35580	
2870	33200	25200	31596	35640	
2871	33088	25240	31612	35592	
2872	32928	25276	31628	35600	
2873	32816	25316	31616	35636	
2874	32656	25292	31660	35640	
2875	32592	25256	31668	35640	
2876	32400	25292	31648	35656	
2877	32368	25300	31628	35668	
2878	32352	25316	31672	35664	
2879	32288	25284	31676	35688	
2880	32096	25340	31680	35700	
2881	31856	25300	31628	35684	
2882	31616	25292	31620	35712	
2883	31552	25272	31624	35704	
2884	31472	25316	31620	35660	
2885	31424	25356	31616	35700	
2886	31408	25312	31632	35652	
2887	31488	25308	31616	35644	
2888	31680	25304	31608	35668	
2889	31904	25316	31624	35632	
2890	32112	25340	31624	35640	
2891	32304	25336	31632	35640	
2892	32464	25328	31600	35628	
2893	32592	25336	31628	35668	
2894	32752	25332	31640	35636	
2895	32880	25312	31620	35660	
2896	33136	25316	31616	35640	
2897	33392	25320	31632	35680	
2898	33456	25312	31620	35680	
2899	33664	25284	31628	35700	
2900	33776	25312	31672	35680	
2901	33952	25284	31648	35652	
2902	34080	25356	31644	35672	
2903	34240	25352	31588	35664	
2904	34288	25308	31644	35632	
2905	34384	25316	31664	35640	
2906	34368	25292	31656	35672	
2907	34288	25360	31624	35628	
2908	34208	25328	31640	35648	
2909	34112	25328	31608	35612	
2910	34064	25280	31636	35640	
2911	34064	25284	31632	35620	
2912	34016	25268	31648	35624	
2913	34096	25300	31628	35640	
2914	34272	25296	31608	35616	
2915	34512	25284	31612	35616	
2916	34560	25308	31584	35624	
2917	34192	25320	31644	35612	
2918	33456	25288	31636	35624	
2919	33536	25264	31644	35628	
2920	34288	25268	31656	35664	
2921	35024	25276	31668	35660	
2922	35216	25272	31612	35632	
2923	35216	25252	31660	35616	
2924	35392	25220	31656	35644	
2925	36208	25260	31676	35676	
2926	36976	25272	31696	35668	
2927	37088	25260	31684	35728	
2928	36960	25248	31664	35752	
2929	36800	25260	31664	35788	
2930	37024	25236	31668	35764	
2931	37488	25248	31676	35804	
2932	38832	25292	31712	35800	
2933	41312	25292	31748	35812	
2934	42640	25224	31776	35792	
2935	42352	25232	31788	35684	
2936	41280	25208	31788	35660	
2937	39632	25212	31744	35596	
2938	37984	25156	31656	35620	
2939	36352	25140	31572	35676	
2940	34864	25144	31476	35728	
2941	33648	25180	31444	35632	
2942	32624	25204	31408	35480	
2943	31616	25232	31408	35420	
2944	30928	25312	31472	35456	
2945	30448	25340	31528	35468	
2946	30112	25376	31564	35440	
2947	30048	25388	31584	35388	
2948	29904	25408	31624	35404	
2949	29824	25412	31568	35460	
2950	29904	25420	31532	35516	
2951	29856	25416	31552	35560	
2952	29904	25460	31632	35600	
2953	29888	25464	31668	35624	
2954	29904	25416	31668	35584	
2955	29840	25364	31704	35684	
2956	29808	25228	31716	35792	
2957	29840	25224	31732	35784	
2958	29824	25164	31732	35764	
2959	29920	25252	31748	35756	
2960	29952	25232	31720	35756	
2961	30000	25204	31700	35720	
2962	29968	25236	31692	35644	
2963	30064	25184	31664	35656	
2964	30128	25180	31620	35608	
2965	30096	25196	31608	35584	
2966	30160	25200	31576	35500	
2967	30192	25144	31568	35476	
2968	30208	25144	31588	35412	
2969	30192	25156	31612	35424	
2970	30160	25188	31588	35416	
2971	30176	25224	31572	35404	
2972	30128	25256	31576	35416	
2973	30096	25276	31576	35404	
2974	30176	25320	31568	35388	
2975	30144	25372	31564	35376	
2976	30128	25396	31556	35344	
2977	30176	25452	31508	35352	
2978	30192	25404	31560	35332	
2979	30096	25404	31540	35380	
2980	30096	25388	31584	35420	
2981	30128	25376	31612	35476	
2982	30112	25364	31628	35552	
2983	30064	25308	31656	35616	
2984	30080	25300	31648	35644	
2985	30080	25232	31676	35708	
2986	30112	25220	31644	35724	
2987	30064	25212	31644	35804	
2988	30048	25196	31664	35812	
2989	30160	25184	31640	35816	
2990	30240	25144	31660	35836	
2991	30320	25184	31640	35824	
2992	30352	25148	31620	35808	
2993	30416	25116	31612	35788	
2994	30480	25132	31596	35748	
2995	30592	25144	31568	35676	
2996	30576	25120	31540	35672	
2997	30592	25132	31552	35672	
2998	30624	25172	31504	35624	
2999	30624	25192	31508	35596	
3000	30720	25208	31504	35568	
3001	30864	25220	31528	35528	
3002	30736	25236	31536	35488	
3003	30624	25240	31536	35544	
3004	30640	25244	31512	35556	
3005	30656	25256	31568	35580	
3006	30528	25272	31564	35544	
3007	30512	25328	31572	35568	
3008	30432	25308	31572	35560	
3009	30448	25312	31596	35604	
3010	30480	25324	31584	35592	
3011	30560	25308	31612	35600	
3012	30688	25284	31620	35588	
3013	30800	25284	31656	35564	
3014	30896	25260	31620	35580	
3015	31088	25304	31624	35552	
3016	31280	25204	31600	35596	
3017	31456	25284	31620	35548	
3018	31616	25328	31588	35464	
3019	31840	25300	31600	35432	
3020	31984	25256	31628	35424	
3021	32144	25304	31664	35460	
3022	32176	25264	31660	35504	
3023	32352	25216	31652	35516	
3024	32560	25240	31612	35596	
3025	32656	25244	31620	35692	
3026	32736	25236	31648	35692	
3027	32720	25216	31664	35684	
3028	32768	25232	31660	35672	
3029	32848	25224	31636	35688	
3030	32880	25260	31632	35632	
3031	32944	25196	31648	35644	
3032	32928	25236	31652	35580	
3033	32896	25208	31668	35544	
3034	32960	25192	31676	35528	
3035	33024	25200	31684	35564	
3036	33008	25180	31660	35536	
3037	32976	25200	31680	35520	
3038	33008	25184	31640	35508	
3039	33040	25212	31676	35572	
3040	33040	25208	31656	35560	
3041	33072	25312	31628	35564	
3042	32960	25284	31604	35588	
3043	32848	25260	31612	35552	
3044	32640	25240	31668	35572	
3045	32512	25216	31668	35596	
3046	32432	25224	31676	35600	
3047	32320	25220	31664	35640	
3048	32272	25188	31644	35624	
3049	32240	25212	31640	35668	
3050	32192	25200	31672	35692	
3051	32048	25204	31656	35716	
3052	31824	25224	31636	35708	
3053	31568	25236	31604	35712	
3054	31424	25212	31636	35708	
3055	31360	25288	31616	35668	
3056	31280	25252	31640	35692	
3057	31328	25272	31648	35680	
3058	31472	25260	31660	35680	
3059	31504	25252	31632	35688	
3060	31696	25292	31664	35656	
3061	31872	25216	31620	35672	
3062	32128	25264	31648	35696	
3063	32272	25284	31636	35664	
3064	32432	25300	31624	35640	
3065	32560	25272	31612	35616	
3066	32720	25284	31620	35600	
3067	32784	25264	31640	35608	
3068	33088	25256	31656	35600	
3069	33296	25220	31632	35616	
3070	33456	25244	31644	35632	
3071	33520	25252	31600	35644	
3072	33744	25292	31632	35628	
3073	33856	25268	31644	35652	
3074	34032	25232	31652	35644	
3075	34032	25308	31652	35620	
3076	34048	25312	31656	35640	
3077	34032	25260	31664	35640	
3078	34032	25320	31660	35596	
3079	33984	25340	31688	35592	
3080	33984	25308	31672	35552	
3081	33888	25264	31684	35580	
3082	33888	25264	31680	35616	
3083	33824	25252	31668	35632	
3084	33888	25216	31664	35628	
3085	34064	25232	31668	35664	
3086	34432	25264	31656	35632	
3087	34800	25228	31684	35636	
3088	34640	25256	31632	35620	
3089	34128	25252	31652	35616	
3090	33808	25308	31640	35620	
3091	34432	25224	31648	35632	
3092	35104	25304	31660	35620	
3093	35408	25252	31640	35608	
3094	35296	25272	31636	35604	
3095	34912	25280	31660	35636	
3096	35280	25264	31656	35644	
3097	36032	25276	31664	35648	
3098	36384	25252	31672	35664	
3099	36128	25276	31656	35656	
3100	35760	25256	31692	35692	
3101	35712	25248	31680	35720	
3102	36352	25260	31704	35760	
3103	37312	25240	31688	35772	
3104	39680	25248	31692	35808	
3105	41920	25248	31756	35768	
3106	42448	25272	31808	35704	
3107	41744	25300	31808	35612	
3108	40352	25280	31792	35576	
3109	38704	25280	31800	35564	
3110	37184	25244	31788	35536	
3111	35648	25204	31740	35608	
3112	34384	25176	31628	35568	
3113	33280	25180	31560	35416	
3114	32368	25184	31468	35464	
3115	31504	25224	31392	35528	
3116	30896	25280	31392	35604	
3117	30448	25352	31424	35604	
3118	30176	25408	31452	35560	
3119	30096	25404	31560	35544	
3120	30048	25420	31576	35552	
3121	30000	25380	31592	35576	
3122	30000	25356	31628	35572	
3123	29968	25372	31716	35508	
3124	30000	25376	31728	35560	
3125	29968	25384	31732	35580	
3126	29968	25344	31712	35704	
3127	30096	25304	31708	35784	
3128	30080	25248	31712	35780	
3129	30096	25284	31744	35808	
3130	30128	25236	31748	35828	
3131	30080	25228	31740	35780	
3132	30096	25224	31736	35724	
3133	30128	25196	31744	35692	
3134	30240	25236	31732	35672	
3135	30288	25220	31716	35644	
3136	30320	25248	31740	35608	
3137	30416	25296	31720	35564	
3138	30464	25264	31736	35496	
3139	30464	25236	31724	35456	
3140	30448	25164	31688	35424	
3141	30448	25160	31664	35384	
3142	30416	25164	31664	35392	
3143	30384	25188	31636	35420	
3144	30384	25268	31612	35416	
3145	30416	25300	31616	35396	
3146	30432	25328	31564	35440	
3147	30352	25356	31596	35432	
3148	30384	25356	31588	35412	
3149	30400	25404	31572	35452	
3150	30368	25392	31584	35436	
3151	30400	25412	31624	35504	
3152	30432	25388	31664	35532	
3153	30464	25384	31652	35576	
3154	30400	25364	31688	35620	
3155	30480	25368	31692	35636	
3156	30400	25328	31696	35700	
3157	30384	25348	31700	35728	
3158	30512	25308	31704	35768	
3159	30528	25308	31704	35812	
3160	30592	25256	31696	35824	
3161	30672	25268	31672	35844	
3162	30816	25232	31676	35812	
3163	30816	25232	31672	35820	
3164	30896	25188	31688	35828	
3165	30864	25176	31680	35784	
3166	30960	25220	31684	35756	
3167	31008	25204	31652	35740	
3168	31104	25184	31644	35704	
3169	31072	25220	31596	35716	
3170	31024	25236	31632	35668	
3171	31120	25284	31548	35652	
3172	31008	25304	31568	35604	
3173	30912	25344	31584	35636	
3174	30912	25288	31564	35596	
3175	30880	25272	31568	35592	
3176	30832	25292	31584	35636	
3177	30752	25340	31576	35576	
3178	30656	25360	31612	35596	
3179	30496	25348	31620	35640	
3180	30432	25332	31644	35628	
3181	30400	25352	31632	35628	
3182	30480	25336	31648	35612	
3183	30544	25296	31648	35616	
3184	30672	25268	31644	35620	
3185	30800	25260	31692	35628	
3186	30960	25264	31676	35656	
3187	31104	25264	31660	35640	
3188	31264	25240	31648	35592	
3189	31440	25236	31620	35612	
3190	31632	25256	31632	35532	
3191	31760	25280	31660	35596	
3192	31952	25276	31644	35624	
3193	32112	25220	31676	35616	
3194	32208	25252	31696	35572	
3195	32352	25240	31720	35660	
3196	32464	25252	31688	35664	
3197	32608	25240	31708	35692	
3198	32608	25244	31700	35684	
3199	32608	25236	31684	35736	
3200	32640	25220	31656	35696	
3201	32752	25224	31664	35704	
3202	32784	25204	31664	35724	
3203	32880	25196	31664	35688	
3204	32864	25224	31660	35688	
3205	32848	25200	31680	35668	
3206	32800	25196	31736	35620	
3207	32832	25252	31696	35604	
3208	32768	25208	31724	35628	
3209	32784	25240	31712	35616	
3210	32832	25220	31736	35596	
3211	32864	25224	31712	35628	
3212	32848	25228	31720	35612	
3213	32816	25284	31696	35624	
3214	32816	25260	31716	35600	
3215	32848	25300	31704	35644	
3216	32832	25236	31676	35624	
3217	32768	25260	31692	35632	
3218	32528	25252	31680	35664	
3219	32464	25260	31708	35668	
3220	32272	25276	31704	35680	
3221	32160	25300	31692	35648	
3222	32160	25320	31696	35648	
3223	32176	25280	31668	35664	
3224	32160	25296	31672	35672	
3225	32000	25264	31668	35696	
3226	31728	25268	31664	35708	
3227	31472	25260	31680	35732	
3228	31296	25272	31656	35688	
3229	31200	25304	31664	35700	
3230	31136	25248	31664	35740	
3231	31104	25304	31672	35744	
3232	31168	25308	31652	35716	
3233	31296	25304	31688	35724	
3234	31536	25280	31696	35760	
3235	31696	25296	31688	35744	
3236	31904	25336	31680	35684	
3237	32016	25328	31688	35696	
3238	32224	25332	31688	35704	
3239	32480	25296	31680	35712	
3240	32544	25284	31688	35708	
3241	32800	25284	31680	35720	
3242	33088	25280	31680	35692	
3243	33248	25284	31704	35672	
3244	33440	25276	31692	35704	
3245	33632	25276	31720	35712	
3246	33840	25292	31712	35692	
3247	33936	25280	31740	35676	
3248	34064	25280	31700	35692	
3249	34192	25264	31712	35676	
3250	34256	25288	31704	35680	
3251	34192	25280	31700	35656	
3252	34080	25260	31700	35676	
3253	34112	25280	31696	35640	
3254	34112	25280	31724	35664	
3255	34064	25312	31700	35660	
3256	34032	25264	31692	35652	
3257	33968	25320	31720	35632	
3258	34064	25304	31720	35632	
3259	34256	25284	31696	35652	
3260	34608	25308	31716	35640	
3261	35072	25336	31724	35628	
3262	35008	25336	31708	35640	
3263	34624	25356	31708	35660	
3264	34496	25320	31728	35676	
3265	34960	25292	31728	35616	
3266	35344	25332	31716	35624	
3267	35152	25336	31712	35644	
3268	34560	25316	31756	35636	
3269	34112	25332	31732	35636	
3270	34512	25288	31712	35644	
3271	35056	25316	31736	35704	
3272	35456	25272	31688	35704	
3273	35136	25276	31716	35752	
3274	34848	25268	31692	35752	
3275	34944	25276	31696	35784	
3276	35808	25232	31684	35844	
3277	37168	25228	31688	35896	
3278	39872	25248	31696	35920	
3279	42144	25216	31708	35932	
3280	42608	25216	31784	35896	
3281	41952	25276	31820	35776	
3282	40576	25292	31888	35684	
3283	39024	25284	31900	35624	
3284	37392	25308	31936	35600	
3285	35936	25260	31904	35568	
3286	34768	25212	31844	35508	
3287	33568	25208	31784	35484	
3288	32608	25172	31736	35480	
3289	31856	25220	31648	35496	
3290	31248	25232	31596	35516	
3291	30896	25284	31564	35568	
3292	30704	25328	31568	35528	
3293	30528	25396	31572	35484	
3294	30480	25444	31560	35576	
3295	30464	25432	31524	35604	
3296	30432	25472	31520	35632	
3297	30416	25460	31540	35636	
3298	30320	25452	31580	35636	
3299	30352	25432	31624	35660	
3300	30368	25408	31656	35720	
3301	30480	25380	31696	35780	
3302	30512	25336	31736	35792	
3303	30544	25276	31780	35824	
3304	30560	25244	31808	35784	
3305	30672	25272	31868	35800	
3306	30688	25264	31856	35744	
3307	30720	25232	31820	35704	
3308	30688	25260	31852	35672	
3309	30720	25224	31828	35672	
3310	30688	25196	31816	35672	
3311	30800	25156	31772	35628	
3312	30752	25152	31728	35604	
3313	30848	25136	31724	35600	
3314	30864	25136	31676	35576	
3315	30960	25152	31660	35560	
3316	30912	25212	31660	35580	
3317	30896	25280	31624	35556	
3318	30832	25292	31628	35500	
3319	30800	25328	31600	35556	
3320	30720	25380	31640	35532	
3321	30688	25368	31576	35516	
3322	30688	25380	31616	35484	
3323	30672	25380	31656	35512	
3324	30608	25368	31664	35548	
3325	30592	25344	31676	35576	
3326	30640	25360	31712	35600	
3327	30640	25372	31728	35624	
3328	30752	25300	31704	35736	
3329	30800	25320	31708	35752	
3330	30832	25280	31736	35796	
3331	30848	25288	31740	35872	
3332	30848	25216	31728	35912	
3333	30864	25284	31736	35912	
3334	30880	25228	31764	35904	
3335	30944	25236	31772	35876	
3336	30992	25188	31768	35892	
3337	31072	25236	31768	35840	
3338	31104	25168	31772	35828	
3339	31184	25208	31756	35812	
3340	31264	25200	31736	35820	
3341	31264	25236	31736	35776	
3342	31248	25188	31724	35772	
3343	31328	25260	31700	35768	
3344	31280	25256	31708	35736	
3345	31184	25300	31692	35728	
3346	31248	25296	31688	35748	
3347	31200	25328	31696	35740	
3348	31072	25324	31684	35740	
3349	30976	25344	31664	35688	
3350	30832	25364	31672	35696	
3351	30784	25388	31696	35692	
3352	30768	25356	31684	35664	
3353	30608	25372	31708	35652	
3354	30592	25384	31712	35640	
3355	30576	25360	31708	35608	
3356	30576	25364	31732	35648	
3357	30624	25376	31736	35608	
3358	30720	25336	31732	35612	
3359	30880	25340	31744	35596	
3360	30960	25300	31736	35600	
3361	31152	25316	31744	35556	
3362	31312	25320	31732	35588	
3363	31456	25264	31700	35544	
3364	31632	25308	31712	35600	
3365	31792	25264	31680	35588	
3366	31872	25312	31692	35640	
3367	31952	25356	31728	35676	
3368	32048	25332	31720	35724	
3369	32112	25328	31728	35744	
3370	32192	25320	31752	35768	
3371	32352	25320	31756	35820	
3372	32448	25304	31776	35816	
3373	32560	25296	31760	35848	
3374	32576	25236	31764	35832	
3375	32592	25220	31776	35808	
3376	32688	25212	31768	35776	
3377	32672	25252	31768	35772	
3378	32752	25244	31776	35756	
3379	32800	25208	31760	35708	
3380	32816	25212	31784	35708	
3381	32880	25212	31760	35684	
3382	32880	25184	31780	35660	
3383	32912	25248	31756	35596	
3384	32944	25248	31776	35628	
3385	32960	25300	31760	35604	
3386	32960	25272	31748	35612	
3387	32944	25316	31752	35608	
3388	32960	25292	31756	35612	
3389	33024	25324	31712	35664	
3390	33024	25316	31732	35668	
3391	33040	25300	31736	35668	
3392	32960	25356	31696	35652	
3393	32880	25312	31696	35704	
3394	32720	25324	31732	35740	
3395	32640	25352	31732	35744	
3396	32480	25320	31736	35780	
3397	32368	25296	31724	35744	
3398	32336	25324	31716	35772	
3399	32416	25292	31720	35760	
3400	32320	25292	31724	35708	
3401	32176	25272	31720	35736	
3402	31872	25340	31728	35704	
3403	31600	25324	31712	35744	
3404	31360	25276	31764	35744	
3405	31216	25288	31700	35748	
3406	31136	25324	31728	35760	
3407	31200	25324	31692	35728	
3408	31312	25332	31716	35708	
3409	31392	25336	31724	35768	
3410	31600	25324	31708	35720	
3411	31808	25332	31728	35752	
3412	31968	25344	31712	35756	
3413	32080	25280	31704	35688	
3414	32240	25316	31732	35688	
3415	32432	25320	31732	35720	
3416	32592	25288	31716	35720	
3417	32752	25316	31732	35756	
3418	32976	25312	31716	35700	
3419	33200	25316	31736	35692	
3420	33312	25312	31752	35708	
3421	33472	25288	31752	35688	
3422	33664	25300	31736	35716	
3423	33776	25256	31740	35708	
3424	33872	25264	31720	35712	
3425	33904	25308	31732	35688	
3426	33904	25304	31736	35712	
3427	33984	25316	31716	35688	
3428	33968	25352	31744	35680	
3429	33920	25272	31744	35704	
3430	33808	25324	31724	35728	
3431	33808	25328	31712	35692	
3432	33744	25336	31708	35736	
3433	33680	25336	31728	35700	
3434	33776	25348	31716	35704	
3435	34096	25316	31688	35684	
3436	34560	25300	31724	35696	
3437	34736	25316	31692	35692	
3438	34448	25312	31700	35692	
3439	33840	25328	31716	35664	
3440	33824	25316	31712	35668	
3441	34256	25312	31708	35616	
3442	34368	25304	31688	35648	
3443	34064	25332	31712	35652	
3444	33472	25268	31720	35640	
3445	33152	25336	31684	35644	
3446	33792	25316	31696	35700	
3447	34464	25276	31684	35656	
3448	34688	25312	31708	35752	
3449	34560	25344	31720	35716	
3450	34576	25324	31652	35752	
3451	35232	25268	31748	35824	
3452	36288	25280	31732	35924	
3453	38608	25260	31764	35968	
3454	41312	25292	31800	35980	
3455	42800	25332	31844	35972	
3456	42512	25332	31856	35908	
3457	41696	25340	31876	35740	
3458	40320	25360	31836	35624	
3459	38784	25292	31792	35580	
3460	37280	25312	31708	35536	
3461	35664	25224	31608	35548	
3462	34528	25176	31540	35488	
3463	33504	25192	31524	35520	
3464	32464	25196	31496	35552	
3465	31664	25316	31504	35636	
3466	31040	25320	31536	35684	
3467	30560	25368	31628	35624	
3468	30320	25404	31672	35564	
3469	30160	25456	31700	35528	
3470	30144	25432	31660	35552	
3471	30192	25436	31676	35624	
3472	30240	25400	31688	35660	
3473	30208	25404	31748	35748	
3474	30176	25372	31760	35800	
3475	30128	25376	31768	35860	
3476	30176	25380	31764	35892	
3477	30128	25384	31788	35908	
3478	30176	25328	31788	35920	
3479	30256	25316	31804	35968	
3480	30272	25352	31808	35952	
3481	30352	25344	31760	35848	
3482	30336	25360	31744	35812	
3483	30352	25300	31732	35764	
3484	30416	25276	31696	35652	
3485	30384	25280	31684	35624	
3486	30464	25260	31624	35564	
3487	30496	25344	31572	35476	
3488	30544	25348	31592	35468	
3489	30624	25324	31612	35492	
3490	30592	25288	31636	35480	
3491	30640	25272	31644	35516	
3492	30608	25212	31596	35572	
3493	30544	25200	31624	35588	
3494	30592	25244	31660	35584	
3495	30560	25260	31652	35596	
3496	30576	25316	31656	35588	
3497	30576	25356	31656	35588	
3498	30640	25416	31688	35608	
3499	30672	25412	31676	35624	
3500	30672	25408	31664	35708	
3501	30688	25396	31680	35700	
3502	30736	25392	31640	35724	
3503	30752	25412	31664	35760	
3504	30736	25384	31676	35772	
3505	30768	25340	31684	35772	
3506	30848	25316	31680	35808	
3507	30784	25284	31684	35780	
3508	30832	25256	31712	35796	
3509	30896	25304	31728	35776	
3510	30944	25348	31688	35756	
3511	31024	25324	31684	35732	
3512	31072	25260	31716	35724	
3513	31104	25204	31700	35788	
3514	31120	25252	31672	35800	
3515	31024	25216	31676	35772	
3516	31056	25156	31716	35784	
3517	31008	25188	31688	35816	
3518	30944	25232	31660	35716	
3519	30976	25260	31620	35688	
3520	30896	25304	31612	35652	
3521	30864	25288	31620	35616	
3522	30896	25368	31632	35636	
3523	30720	25392	31620	35616	
3524	30640	25380	31660	35656	
3525	30576	25364	31672	35664	
3526	30464	25352	31652	35680	
3527	30400	25352	31672	35676	
3528	30240	25348	31684	35680	
3529	30192	25364	31664	35696	
3530	30192	25332	31684	35676	
3531	30144	25316	31696	35688	
3532	30256	25328	31680	35648	
3533	30320	25336	31668	35660	
3534	30336	25300	31700	35612	
3535	30416	25312	31684	35636	
3536	30624	25320	31688	35636	
3537	30816	25240	31664	35624	
3538	31072	25292	31652	35616	
3539	31296	25284	31632	35608	
3540	31552	25276	31664	35640	
3541	31776	25288	31680	35616	
3542	31920	25276	31664	35652	
3543	32080	25284	31656	35648	
3544	32240	25316	31684	35720	
3545	32272	25324	31668	35680	
3546	32352	25312	31684	35692	
3547	32480	25312	31680	35724	
3548	32560	25308	31672	35752	
3549	32576	25308	31656	35712	
3550	32704	25292	31664	35668	
3551	32688	25220	31624	35652	
3552	32752	25252	31644	35660	
3553	32784	25196	31668	35644	
3554	32816	25176	31644	35676	
3555	32816	25240	31680	35680	
3556	32832	25204	31692	35640	
3557	32896	25204	31696	35656	
3558	32880	25192	31700	35700	
3559	32912	25176	31692	35692	
3560	32896	25148	31696	35720	
3561	32992	25192	31680	35700	
3562	33008	25184	31668	35712	
3563	33056	25216	31688	35692	
3564	33040	25244	31664	35724	
3565	33056	25288	31668	35760	
3566	32928	25304	31680	35748	
3567	32928	25260	31656	35740	
3568	32688	25284	31668	35728	
3569	32496	25256	31676	35772	
3570	32352	25276	31688	35748	
3571	32320	25340	31656	35796	
3572	32304	25284	31704	35780	
3573	32336	25308	31688	35764	
3574	32144	25336	31696	35736	
3575	31872	25316	31700	35780	
3576	31600	25308	31704	35740	
3577	31520	25320	31680	35748	
3578	31344	25356	31660	35708	
3579	31296	25332	31692	35728	
3580	31248	25276	31676	35692	
3581	31248	25344	31688	35684	
3582	31264	25336	31684	35672	
3583	31408	25300	31696	35692	
3584	31712	25344	31676	35680	
3585	31920	25316	31684	35636	
3586	32064	25324	31704	35684	
3587	32288	25352	31700	35684	
3588	32448	25372	31704	35680	
3589	32544	25372	31696	35672	
3590	32688	25336	31688	35664	
3591	32864	25356	31684	35676	
3592	33104	25340	31700	35648	
3593	33344	25348	31676	35664	
3594	33568	25360	31692	35684	
3595	33664	25356	31672	35668	
3596	33808	25324	31684	35708	
3597	33936	25352	31696	35668	
3598	34016	25320	31680	35704	
3599	34064	25336	31700	35664	
3600	34160	25316	31716	35672	
3601	34096	25316	31700	35712	
3602	34096	25292	31716	35696	
3603	34128	25336	31704	35656	
3604	34000	25316	31696	35700	
3605	33904	25324	31688	35672	
3606	33888	25332	31684	35652	
3607	33808	25344	31664	35652	
3608	33888	25360	31684	35640	
3609	34064	25316	31684	35676	
3610	34496	25328	31672	35648	
3611	34496	25272	31696	35700	
3612	34112	25300	31660	35668	
3613	33168	25348	31704	35656	
3614	32832	25332	31684	35656	
3615	33392	25280	31680	35628	
3616	33968	25340	31684	35652	
3617	34112	25304	31676	35644	
3618	33888	25300	31684	35632	
3619	33856	25344	31684	35668	
3620	34752	25316	31676	35652	
3621	35584	25272	31720	35628	
3622	36048	25284	31664	35692	
3623	36224	25328	31716	35672	
3624	36368	25276	31692	35660	
3625	37168	25288	31728	35708	
3626	38080	25316	31756	35756	
3627	39744	25328	31764	35792	
3628	42192	25332	31780	35784	
3629	43488	25324	31796	35760	
3630	43312	25316	31812	35744	
3631	42256	25208	31776	35724	
3632	40864	25236	31744	35696	
3633	39296	25312	31684	35660	
3634	37728	25288	31588	35580	
3635	36144	25240	31528	35520	
3636	34720	25176	31508	35504	
3637	33472	25116	31516	35436	
3638	32416	25152	31492	35420	
3639	31408	25236	31560	35444	
3640	30816	25268	31652	35528	
3641	30256	25292	31676	35556	
3642	29968	25372	31704	35548	
3643	29792	25440	31700	35452	
3644	29744	25472	31672	35396	
3645	29648	25412	31664	35408	
3646	29664	25428	31668	35400	
3647	29664	25384	31712	35496	
3648	29680	25344	31744	35556	
3649	29664	25352	31764	35632	
3650	29616	25384	31744	35736	
3651	29680	25364	31756	35764	
3652	29712	25352	31764	35772	
3653	29792	25316	31720	35772	
3654	29856	25280	31768	35804	
3655	29888	25308	31748	35756	
3656	29920	25328	31720	35700	
3657	30000	25332	31680	35596	
3658	30064	25328	31644	35548	
3659	30048	25244	31652	35484	
3660	30096	25196	31608	35448	
3661	30112	25176	31624	35360	
3662	30176	25152	31616	35360	
3663	30272	25152	31596	35396	
3664	30272	25172	31624	35436	
3665	30288	25236	31628	35492	
3666	30256	25256	31660	35508	
3667	30240	25344	31692	35544	
3668	30224	25360	31696	35576	
3669	30288	25360	31724	35568	
3670	30272	25380	31688	35588	
3671	30288	25376	31676	35640	
3672	30320	25372	31652	35644	
3673	30304	25356	31624	35660	
3674	30288	25364	31604	35660	
3675	30320	25336	31596	35664	
3676	30352	25296	31608	35664	
3677	30288	25276	31616	35624	
3678	30224	25264	31620	35608	
3679	30208	25244	31632	35628	
3680	30320	25256	31648	35656	
3681	30336	25224	31672	35624	
3682	30400	25248	31664	35664	
3683	30400	25268	31680	35640	
3684	30432	25220	31676	35632	
3685	30528	25208	31704	35668	
3686	30544	25220	31660	35672	
3687	30640	25176	31668	35680	
3688	30704	25188	31620	35664	
3689	30752	25212	31612	35640	
3690	30768	25260	31608	35620	
3691	30672	25220	31588	35576	
3692	30640	25264	31588	35564	
3693	30672	25212	31592	35524	
3694	30672	25288	31584	35508	
3695	30640	25276	31608	35536	
3696	30624	25252	31568	35512	
3697	30576	25252	31604	35544	
3698	30592	25288	31608	35552	
3699	30464	25280	31604	35564	
3700	30432	25268	31608	35608	
3701	30336	25296	31592	35636	
3702	30400	25276	31648	35592	
3703	30352	25280	31660	35604	
3704	30272	25284	31656	35648	
3705	30160	25284	31620	35612	
3706	30240	25240	31644	35612	
3707	30240	25232	31656	35620	
3708	30384	25204	31648	35608	
3709	30528	25212	31664	35592	
3710	30704	25212	31620	35580	
3711	30816	25216	31660	35588	
3712	31008	25184	31652	35612	
3713	31232	25156	31640	35584	
3714	31424	25188	31644	35572	
3715	31600	25188	31672	35544	
3716	31824	25232	31644	35576	
3717	31936	25240	31668	35556	
3718	32016	25204	31672	35608	
3719	32160	25168	31684	35652	
3720	32272	25212	31680	35648	
3721	32352	25208	31648	35632	
3722	32496	25244	31652	35616	
3723	32560	25248	31596	35608	
3724	32640	25256	31648	35616	
3725	32640	25172	31652	35596	
3726	32736	25160	31668	35576	
3727	32752	25128	31672	35564	
3728	32864	25164	31692	35576	
3729	32880	25180	31664	35528	
3730	32992	25168	31656	35512	
3731	33008	25204	31644	35560	
3732	33008	25228	31664	35540	
3733	33024	25216	31632	35552	
3734	33104	25220	31672	35568	
3735	33104	25240	31672	35548	
3736	33136	25260	31672	35572	
3737	33104	25252	31628	35564	
3738	33072	25252	31644	35588	
3739	33056	25312	31624	35564	
3740	32976	25280	31660	35604	
3741	32880	25288	31660	35628	
3742	32800	25244	31644	35564	
3743	32688	25236	31636	35616	
3744	32464	25280	31636	35612	
3745	32400	25280	31656	35636	
3746	32336	25240	31608	35652	
3747	32368	25316	31596	35636	
3748	32288	25272	31636	35612	
3749	32208	25252	31644	35608	
3750	31984	25312	31656	35616	
3751	31744	25312	31624	35616	
3752	31632	25276	31668	35616	
3753	31408	25284	31632	35588	
3754	31264	25276	31660	35596	
3755	31168	25268	31620	35612	
3756	31184	25296	31628	35580	
3757	31216	25268	31652	35604	
3758	31360	25268	31656	35592	
3759	31520	25292	31644	35576	
3760	31824	25268	31612	35552	
3761	32032	25244	31652	35564	
3762	32112	25264	31628	35600	
3763	32304	25248	31648	35572	
3764	32448	25216	31620	35552	
3765	32656	25216	31656	35596	
3766	32800	25220	31656	35584	
3767	33024	25240	31652	35568	
3768	33296	25232	31688	35584	
3769	33504	25216	31692	35596	
3770	33696	25232	31660	35600	
3771	33824	25216	31684	35584	
3772	33984	25220	31664	35588	
3773	34096	25224	31668	35580	
3774	34096	25212	31636	35532	
3775	34080	25220	31692	35552	
3776	34000	25204	31672	35544	
3777	33968	25220	31648	35552	
3778	33968	25224	31668	35548	
3779	33968	25260	31636	35488	
3780	33952	25244	31656	35484	
3781	33904	25204	31636	35528	
3782	33808	25212	31612	35508	
3783	33824	25240	31632	35508	
3784	33968	25204	31672	35504	
3785	34304	25220	31648	35508	
3786	34576	25220	31644	35488	
3787	34544	25240	31632	35528	
3788	34080	25252	31644	35512	
3789	33552	25224	31640	35500	
3790	34032	25252	31628	35500	
3791	34784	25232	31656	35488	
3792	35376	25200	31656	35496	
3793	35344	25212	31660	35492	
3794	35152	25216	31660	35528	
3795	35504	25208	31656	35544	
3796	36224	25196	31648	35544	
3797	36752	25224	31620	35600	
3798	36608	25184	31644	35604	
3799	36384	25216	31636	35592	
3800	36272	25204	31668	35632	
3801	36880	25244	31692	35688	
3802	37696	25228	31664	35756	
3803	39632	25228	31704	35760	
3804	41920	25220	31752	35736	
3805	42560	25248	31792	35620	
3806	42000	25172	31784	35564	
3807	40736	25204	31768	35528	
3808	39120	25180	31740	35508	
3809	37296	25116	31672	35556	
3810	35648	25096	31584	35584	
3811	34304	25116	31484	35484	
3812	33200	25120	31412	35388	
3813	32160	25188	31392	35332	
3814	31264	25180	31404	35384	
3815	30688	25292	31456	35396	
3816	30160	25336	31556	35344	
3817	29952	25332	31600	35308	
3818	29856	25372	31596	35312	
3819	29776	25360	31580	35376	
3820	29792	25336	31568	35448	
3821	29776	25344	31584	35544	
3822	29840	25348	31676	35632	
3823	29888	25364	31708	35648	
3824	29888	25356	31768	35728	
3825	29888	25412	31724	35740	
3826	29904	25388	31684	35732	
3827	29920	25308	31700	35704	
3828	29872	25260	31720	35680	
3829	29824	25208	31756	35672	
3830	29888	25244	31732	35616	
3831	29920	25176	31732	35540	
3832	30000	25144	31708	35476	
3833	30000	25164	31676	35468	
3834	30064	25152	31636	35452	
3835	30080	25152	31628	35376	
3836	30048	25156	31596	35352	
3837	30080	25104	31580	35380	
3838	30160	25108	31628	35376	
3839	30144	25108	31584	35336	
3840	30128	25120	31596	35360	
3841	30192	25188	31668	35408	
3842	30224	25204	31584	35364	
3843	30192	25252	31588	35428	
3844	30160	25276	31616	35372	
3845	30192	25280	31632	35384	
3846	30256	25344	31660	35432	
3847	30288	25324	31604	35420	
3848	30240	25308	31612	35488	
3849	30256	25252	31608	35532	
3850	30208	25272	31608	35560	
3851	30192	25272	31592	35600	
3852	30192	25296	31576	35652	
3853	30144	25368	31552	35620	
3854	30176	25376	31572	35596	
3855	30240	25316	31620	35616	
3856	30272	25288	31636	35588	
3857	30288	25208	31644	35604	
3858	30368	25168	31700	35624	
3859	30384	25176	31668	35664	
3860	30448	25152	31668	35688	
3861	30416	25144	31652	35696	
3862	30432	25156	31652	35628	
3863	30496	25128	31644	35708	
3864	30576	25164	31588	35680	
3865	30672	25172	31588	35616	
3866	30704	25124	31580	35632	
3867	30800	25144	31540	35612	
3868	30720	25224	31544	35552	
3869	30800	25192	31532	35508	
3870	30752	25176	31544	35496	
3871	30800	25232	31568	35528	
3872	30768	25200	31556	35512	
3873	30704	25244	31544	35492	
3874	30656	25208	31568	35512	
3875	30592	25304	31568	35512	
3876	30480	25308	31580	35572	
3877	30464	25272	31588	35528	
3878	30352	25308	31576	35564	
3879	30400	25292	31612	35580	
3880	30352	25324	31632	35568	
3881	30384	25304	31628	35568	
3882	30448	25252	31640	35560	
3883	30576	25284	31644	35524	
3884	30736	25260	31660	35564	
3885	30896	25204	31672	35584	
3886	31040	25184	31644	35548	
3887	31232	25196	31636	35508	
3888	31424	25164	31600	35516	
3889	31648	25180	31612	35480	
3890	31824	25284	31588	35420	
3891	31968	25308	31552	35360	
3892	32176	25276	31612	35376	
3893	32384	25216	31640	35424	
3894	32480	25192	31660	35444	
3895	32544	25156	31660	35484	
3896	32640	25172	31624	35600	
3897	32656	25196	31644	35644	
3898	32624	25184	31624	35612	
3899	32704	25192	31640	35608	
3900	32704	25212	31596	35620	
3901	32736	25184	31592	35588	
3902	32768	25204	31644	35564	
3903	32816	25184	31620	35520	
3904	32896	25176	31640	35484	
3905	32896	25160	31660	35476	
3906	32896	25172	31672	35468	
3907	32944	25164	31672	35472	
3908	33056	25168	31640	35452	
3909	33104	25144	31648	35476	
3910	33072	25196	31664	35484	
3911	33040	25204	31632	35492	
3912	33024	25192	31644	35512	
3913	33056	25276	31620	35544	
3914	33136	25204	31640	35564	
3915	33104	25316	31640	35572	
3916	33120	25308	31636	35512	
3917	32976	25296	31636	35516	
3918	32848	25244	31672	35560	
3919	32736	25224	31652	35532	
3920	32512	25224	31672	35588	
3921	32464	25204	31680	35604	
3922	32416	25240	31648	35624	
3923	32368	25248	31656	35612	
3924	32384	25264	31648	35632	
3925	32160	25244	31620	35636	
3926	31824	25256	31660	35628	
3927	31664	25256	31632	35632	
3928	31552	25224	31628	35628	
3929	31472	25224	31632	35620	
3930	31328	25296	31636	35596	
3931	31344	25228	31632	35600	
3932	31296	25268	31652	35536	
3933	31552	25240	31612	35536	
3934	31728	25280	31648	35532	
3935	31920	25248	31600	35600	
3936	32032	25260	31632	35528	
3937	32192	25268	31612	35512	
3938	32352	25284	31608	35556	
3939	32560	25296	31640	35548	
3940	32688	25232	31600	35540	
3941	32848	25252	31600	35556	
3942	33056	25296	31620	35544	
3943	33312	25268	31640	35548	
3944	33504	25292	31628	35556	
3945	33728	25340	31660	35556	
3946	33984	25248	31604	35572	
3947	34112	25256	31616	35600	
3948	34224	25296	31628	35564	
3949	34320	25260	31624	35536	
3950	34320	25280	31612	35520	
3951	34272	25288	31620	35488	
3952	34176	25192	31628	35536	
3953	34128	25228	31676	35532	
3954	34048	25212	31656	35544	
3955	33984	25264	31636	35580	
3956	33920	25252	31620	35564	
3957	33776	25264	31632	35580	
3958	33776	25248	31592	35572	
3959	33936	25220	31584	35540	
3960	34272	25228	31568	35544	
3961	34688	25224	31608	35552	
3962	34864	25236	31576	35524	
3963	34544	25224	31596	35536	
3964	33888	25232	31616	35544	
3965	34112	25252	31608	35516	
3966	34768	25240	31620	35580	
3967	35184	25248	31632	35528	
3968	34976	25232	31584	35556	
3969	34624	25240	31608	35532	
3970	34496	25224	31596	35584	
3971	35120	25228	31580	35620	
3972	35728	25204	31596	35612	
3973	35696	25252	31600	35592	
3974	35312	25256	31596	35584	
3975	35040	25248	31608	35620	
3976	35472	25268	31592	35612	
3977	36256	25308	31588	35612	
3978	37856	25236	31592	35636	
3979	40608	25312	31636	35696	
3980	42128	25272	31644	35640	
3981	42080	25332	31688	35596	
3982	41200	25288	31724	35492	
3983	39776	25288	31704	35452	
3984	38192	25248	31664	35452	
3985	36656	25208	31584	35496	
3986	35248	25204	31508	35460	
3987	34128	25216	31420	35364	
3988	33072	25204	31352	35372	
3989	32128	25216	31352	35376	
3990	31360	25328	31376	35400	
3991	30800	25364	31440	35376	
3992	30384	25384	31512	35320	
3993	30240	25396	31560	35304	
3994	30176	25420	31564	35292	
3995	30192	25416	31556	35356	
3996	30160	25416	31532	35488	
3997	30128	25392	31532	35484	
3998	30144	25424	31572	35580	
3999	30144	25492	31608	35572	
4000	30224	25456	31628	35572	
4001	30208	25416	31604	35640	
4002	30224	25316	31648	35688	
4003	30272	25252	31684	35744	
4004	30128	25176	31692	35764	
4005	30128	25160	31704	35748	
4006	30256	25144	31696	35736	
4007	30192	25120	31696	35640	
4008	30176	25136	31672	35616	
4009	30256	25088	31664	35600	
4010	30192	25068	31688	35576	
4011	30224	25088	31596	35436	
4012	30224	25068	31600	35396	
4013	30272	25056	31576	35416	
4014	30320	25092	31580	35396	
4015	30368	25084	31568	35372	
