# OpenSignals Text File Format. Version 1
# {"88:6B:0F:AB:F8:70": {"position": 0, "device": "musclebanplux", "device name": "EMG", "device connection": "BTH88:6B:0F:AB:F8:70", "sampling rate": 1000, "resolution": [16], "firmware version": 1026, "comments": "", "keywords": "", "mode": 0, "sync interval": 2, "date": "2024-1-15", "time": "16:27:50.862", "channels": [1], "sensor": ["EMG"], "label": ["EMG"], "column": ["nSeq", "EMG"], "special": [{}], "digital IO": [], "convertedValues": 0}, "88:6B:0F:AB:F7:54": {"position": 1, "device": "musclebanplux", "device name": "ACC", "device connection": "BTH88:6B:0F:AB:F7:54", "sampling rate": 1000, "resolution": [16, 16, 16, 16], "firmware version": 1026, "comments": "", "keywords": "", "mode": 0, "sync interval": 2, "date": "2024-1-15", "time": "16:27:50.862", "channels": [1, 2, 3, 4], "sensor": ["EMG", "gACC", "gACC", "gACC"], "label": ["EMG", "ACC_X", "ACC_Y", "ACC_Z"], "column": ["nSeq", "EMG", "ACC_X", "ACC_Y", "ACC_Z"], "special": [{}, {}, {}, {}], "digital IO": [], "convertedValues": 0}}
# EndOfHeader
5216	32432	0	32976	35412	38216	25456	
5217	32400	1	30800	39920	34860	31852	
5218	32352	2	31392	40556	34296	32960	
5219	32336	3	31728	40616	34304	32944	
5220	32464	4	31920	40512	34260	32928	
5221	32560	5	32032	40512	34260	32928	
5222	32384	6	33376	40668	34260	32936	
5223	32368	7	32624	40612	34264	32920	
5224	32416	8	31808	40672	34268	32904	
5225	32496	9	32720	40564	34284	32864	
5226	32528	10	32656	40564	34284	32864	
5227	32320	11	31680	40628	34260	32840	
5228	32560	12	31664	40624	34312	32904	
5229	32576	13	31408	40652	34284	32888	
5230	32352	14	32528	40696	34276	32888	
5231	32400	15	35008	40696	34276	32888	
5232	32400	16	35008	40688	34304	32888	
5233	32608	17	34256	40724	34280	32864	
5234	32592	18	34640	40732	34320	32912	
5235	32368	19	33920	40656	34276	32944	
5236	32160	20	30832	40656	34276	32944	
5237	32208	21	30192	40788	34328	32888	
5238	32704	22	30432	40760	34284	32952	
5239	32752	23	32016	40776	34344	32920	
5240	32704	24	34032	40688	34304	32928	
5241	32496	25	35824	40688	34304	32928	
5242	32384	26	34288	40728	34320	32944	
5243	32608	27	30416	40652	34288	32904	
5244	32736	28	30640	40716	34296	32944	
5245	32576	29	29152	40620	34304	32976	
5246	32544	30	27680	40620	34304	32976	
5247	32512	31	29248	40732	34300	32968	
5248	32400	32	32880	40716	34312	32920	
5249	32384	33	31920	40668	34244	32976	
5250	32400	34	33456	40660	34304	32952	
5251	32496	35	32256	40660	34304	32952	
5252	32336	36	31168	40652	34296	32960	
5253	32560	37	32080	40660	34336	32976	
5254	32576	38	33568	40668	34276	32968	
5255	32560	39	33168	40656	34280	32952	
5256	32288	40	33648	40656	34280	32952	
5257	32352	41	33744	40648	34344	32944	
5258	32544	42	33504	40688	34304	32928	
5259	32448	43	33728	40696	34312	32928	
5260	32528	44	33072	40732	34276	32960	
5261	32352	45	33328	40732	34276	32960	
5262	32192	46	33296	40696	34320	32936	
5263	32576	47	32656	40772	34288	32944	
5264	32448	48	32704	40680	34272	32920	
5265	32560	49	32768	40724	34276	32952	
5266	32624	50	32576	40724	34276	32952	
5267	32592	51	33024	40712	34320	32944	
5268	32672	52	32544	40792	34328	32952	
5269	32560	53	32352	40704	34320	32960	
5270	32512	54	33024	40808	34292	33024	
5271	32544	55	33168	40808	34292	33024	
5272	32576	56	32816	40780	34268	32984	
5273	32512	57	33808	40792	34268	33024	
5274	32576	58	33760	40796	34268	32992	
5275	32656	59	35696	40808	34280	33064	
5276	32448	60	36736	40808	34280	33064	
5277	32288	61	35136	40828	34312	33008	
5278	32704	62	31408	40780	34292	33024	
5279	32448	63	26048	40768	34260	33032	
5280	32608	64	23808	40752	34276	33088	
5281	32416	65	26000	40752	34276	33088	
5282	32352	66	28064	40788	34264	33064	
5283	32400	67	31024	40772	34264	33040	
5284	32496	68	33408	40716	34260	33040	
5285	32384	69	33456	40656	34268	33024	
5286	32400	70	33760	40656	34268	33024	
5287	32560	71	33328	40576	34264	32984	
5288	32336	72	33312	40624	34256	32960	
5289	32400	73	33104	40612	34288	32976	
5290	32432	74	34336	40568	34264	32928	
5291	32576	75	34048	40568	34264	32928	
5292	32528	76	34176	40588	34256	32888	
5293	32704	77	34704	40584	34248	32928	
5294	32464	78	33120	40540	34232	32928	
5295	32880	79	31200	40548	34260	32936	
5296	32544	80	32176	40548	34260	32936	
5297	32272	81	31808	40592	34264	32872	
5298	32400	82	33120	40588	34260	32864	
5299	32368	83	33664	40632	34276	32888	
5300	32496	84	33616	40620	34312	32880	
5301	32528	85	32928	40620	34312	32880	
5302	32576	86	32080	40528	34260	32864	
5303	32416	87	32560	40660	34296	32904	
5304	32352	88	33104	40648	34296	32936	
5305	32544	89	33408	40680	34304	32936	
5306	32304	90	33136	40680	34304	32936	
5307	32368	91	33168	40680	34304	32880	
5308	32688	92	32576	40672	34304	32952	
5309	32736	93	31872	40772	34344	32976	
5310	32656	94	34016	40780	34320	32984	
5311	32464	95	32608	40780	34320	32984	
5312	32480	96	32368	40768	34352	32976	
5313	32400	97	32944	40744	34312	33072	
5314	32144	98	31280	40792	34388	33024	
5315	32416	99	32336	40724	34344	33024	
5316	32352	100	32080	40724	34344	33024	
5317	32416	101	30480	40724	34360	33016	
5318	32416	102	29312	40732	34364	33072	
5319	32656	103	28480	40668	34424	33056	
5320	32624	104	28672	40648	34376	33048	
5321	32544	105	33664	40648	34376	33048	
5322	32336	106	35008	40612	34400	33032	
5323	32544	107	34144	40576	34380	32968	
5324	32304	108	33808	40600	34424	32960	
5325	32432	109	33664	40588	34384	32960	
5326	32368	110	31728	40588	34384	32960	
5327	32480	111	32048	40540	34372	32944	
5328	32288	112	33264	40556	34408	32912	
5329	32688	113	33600	40528	34424	32920	
5330	32768	114	33696	40568	34416	32920	
5331	32656	115	34800	40568	34416	32920	
5332	32624	116	34800	40564	34432	32864	
5333	32624	117	32784	40624	34392	32880	
5334	32528	118	28464	40548	34392	32904	
5335	32624	119	24336	40640	34400	32912	
5336	32448	120	28688	40640	34400	32912	
5337	32544	121	33136	40540	34392	32888	
5338	32528	122	35232	40688	34372	32896	
5339	32288	123	35216	40656	34364	32880	
5340	32592	124	34480	40632	34384	32848	
5341	32288	125	34368	40632	34384	32848	
5342	32432	126	34272	40660	34328	32904	
5343	32480	127	33920	40660	34288	32896	
5344	32528	128	33184	40696	34296	33000	
5345	32480	129	33232	40716	34304	32952	
5346	32640	130	32304	40716	34304	32952	
5347	32384	131	31344	40732	34296	32968	
5348	32416	132	31504	40652	34312	33000	
5349	32608	133	32368	40688	34320	33056	
5350	32544	134	32400	40716	34288	33048	
5351	32464	135	32832	40716	34288	33048	
5352	32320	136	33408	40732	34272	33080	
5353	32544	137	32896	40724	34260	33048	
5354	32752	138	31872	40680	34292	33120	
5355	32640	139	30928	40732	34264	33136	
5356	32576	140	31328	40732	34264	33136	
5357	32464	141	32224	40676	34268	33088	
5358	32512	142	32464	40668	34264	33072	
5359	32400	143	31936	40652	34260	33080	
5360	32448	144	32800	40680	34248	33112	
5361	32416	145	33504	40680	34248	33112	
5362	32592	146	34256	40660	34256	33072	
5363	32528	147	33792	40680	34232	33072	
5364	32416	148	32336	40672	34264	33064	
5365	32368	149	30160	40652	34204	33088	
5366	32608	150	31008	40652	34204	33088	
5367	32400	151	31408	40680	34248	33080	
5368	32464	152	31936	40724	34248	33032	
5369	32336	153	33664	40668	34244	33000	
5370	32768	154	32416	40648	34224	32968	
5371	32560	155	30816	40648	34224	32968	
5372	32192	156	30432	40716	34224	32976	
5373	32256	157	31856	40676	34188	32944	
5374	32384	158	33440	40724	34212	32896	
5375	32624	159	33616	40668	34228	32960	
5376	32480	160	33984	40668	34228	32960	
5377	32416	161	34608	40760	34192	32968	
5378	32320	162	35136	40708	34200	33000	
5379	32560	163	35152	40668	34188	32936	
5380	32560	164	34176	40716	34208	32944	
5381	32576	165	34208	40716	34208	32944	
5382	32496	166	32848	40668	34252	32936	
5383	32384	167	31200	40712	34248	32864	
5384	32816	168	29360	40648	34232	32912	
5385	32528	169	29120	40696	34276	32864	
5386	32752	170	30256	40696	34276	32864	
5387	32288	171	30448	40600	34296	32976	
5388	32400	172	30048	40696	34276	32976	
5389	32544	173	28944	40668	34284	32944	
5390	32592	174	32160	40696	34312	32920	
5391	32528	175	34736	40696	34312	32920	
5392	32480	176	35088	40716	34296	32944	
5393	32256	177	34576	40652	34284	32920	
5394	32240	178	30256	40640	34328	32928	
5395	32368	179	30064	40616	34312	32944	
5396	32688	180	32816	40616	34312	32944	
5397	32480	181	34656	40632	34348	32952	
5398	32432	182	35664	40640	34312	32936	
5399	32496	183	34288	40680	34372	32952	
5400	32592	184	32400	40596	34328	32864	
5401	32624	185	30816	40596	34328	32864	
5402	32432	186	31344	40716	34328	32920	
5403	32352	187	32272	40652	34328	32896	
5404	32384	188	32864	40648	34336	32920	
5405	32656	189	35152	40668	34352	32872	
5406	32464	190	34512	40668	34352	32872	
5407	32288	191	34704	40732	34340	32872	
5408	32448	192	35120	40724	34344	32904	
5409	32464	193	33616	40724	34400	32880	
5410	32464	194	32368	40760	34348	32936	
5411	32384	195	31072	40760	34348	32936	
5412	32544	196	28688	40776	34312	32896	
5413	32400	197	28592	40768	34304	32904	
5414	32304	198	28240	40796	34416	32912	
5415	32208	199	29792	40724	34408	32848	
5416	32400	200	33728	40724	34408	32848	
5417	32544	201	33760	40780	34404	32936	
5418	32496	202	33088	40752	34360	32936	
5419	32544	203	33792	40772	34352	32960	
5420	32464	204	34096	40776	34352	32944	
5421	32576	205	33744	40776	34352	32944	
5422	32528	206	33648	40676	34388	32960	
5423	32368	207	33168	40708	34344	32968	
5424	32448	208	32736	40736	34356	32944	
5425	32640	209	32704	40704	34364	32968	
5426	32336	210	31984	40704	34364	32968	
5427	32432	211	32128	40668	34320	32992	
5428	32384	212	33088	40760	34308	33040	
5429	32496	213	34784	40680	34268	32992	
5430	32704	214	35520	40732	34292	32968	
5431	32576	215	34080	40732	34292	32968	
5432	32384	216	31152	40724	34312	32944	
5433	32512	217	28592	40692	34296	32968	
5434	32608	218	28032	40704	34304	33120	
5435	32624	219	30800	40704	34312	32984	
5436	32480	220	32224	40704	34312	32984	
5437	32624	221	32464	40660	34240	33040	
5438	32464	222	32816	40660	34276	33064	
5439	32480	223	33680	40752	34284	33096	
5440	32272	224	33216	40768	34276	33112	
5441	32656	225	33936	40768	34276	33112	
5442	32512	226	32352	40712	34252	33080	
5443	32544	227	30880	40676	34200	33088	
5444	32384	228	31648	40732	34216	33072	
5445	32544	229	31184	40708	34232	33040	
5446	32576	230	30752	40708	34232	33040	
5447	32400	231	31504	40780	34224	33008	
5448	32416	232	32480	40696	34232	33088	
5449	32544	233	33360	40720	34260	33072	
5450	32368	234	34080	40652	34216	33096	
5451	32560	235	34256	40652	34216	33096	
5452	32416	236	33888	40732	34224	33072	
5453	32640	237	33248	40776	34188	33104	
5454	32512	238	32928	40712	34172	32976	
5455	32448	239	31984	40720	34200	33008	
5456	32496	240	32832	40720	34200	33008	
5457	32544	241	33824	40736	34216	32968	
5458	32464	242	36048	40644	34196	32992	
5459	32288	243	37648	40760	34216	33000	
5460	32288	244	36368	40780	34216	33048	
5461	32240	245	33632	40780	34216	33048	
5462	32496	246	28320	40772	34216	32968	
5463	32480	247	26752	40776	34188	32960	
5464	32576	248	26896	40744	34188	32992	
5465	32400	249	29424	40764	34240	32968	
5466	32544	250	31616	40764	34240	32968	
5467	32544	251	29792	40724	34224	32968	
5468	32336	252	30416	40740	34224	32992	
5469	32496	253	29936	40696	34212	32992	
5470	32256	254	29968	40696	34240	32968	
5471	32256	255	32384	40696	34240	32968	
5472	32384	256	33344	40716	34240	32960	
5473	32368	257	34528	40624	34240	32952	
5474	32608	258	33648	40668	34224	32960	
5475	32384	259	32768	40632	34216	32952	
5476	32816	260	33408	40632	34216	32952	
5477	32496	261	34832	40640	34276	32952	
5478	32288	262	34496	40624	34284	32920	
5479	32624	263	33360	40596	34288	32888	
5480	32736	264	33472	40568	34264	32912	
5481	32656	265	33680	40568	34264	32912	
5482	32640	266	33104	40596	34288	32960	
5483	32176	267	32880	40604	34312	32936	
5484	32320	268	32800	40632	34284	32856	
5485	32544	269	32224	40648	34312	32864	
5486	32672	270	32960	40648	34312	32864	
5487	32512	271	33456	40576	34280	32936	
5488	32416	272	34304	40668	34312	32856	
5489	32336	273	33728	40752	34284	32928	
5490	32464	274	32848	40732	34320	32880	
5491	32560	275	33488	40732	34320	32880	
5492	32528	276	33440	40752	34320	32944	
5493	32464	277	32656	40668	34288	32912	
5494	32384	278	31408	40752	34276	32960	
5495	32528	279	27152	40788	34320	32952	
5496	32432	280	24880	40788	34320	32952	
5497	32688	281	29488	40712	34268	32952	
5498	32448	282	32384	40780	34284	32952	
5499	32640	283	33120	40732	34300	32952	
5500	32544	284	33136	40732	34320	32936	
5501	32352	285	34080	40732	34320	32936	
5502	32464	286	34624	40672	34344	32936	
5503	32448	287	34352	40696	34328	32936	
5504	32704	288	33584	40740	34320	32976	
5505	32256	289	32224	40640	34320	32912	
5506	32432	290	31472	40640	34320	32912	
5507	32400	291	32304	40552	34328	32952	
5508	32256	292	33104	40568	34288	32944	
5509	32560	293	33568	40588	34264	32936	
5510	32432	294	32736	40624	34312	32936	
5511	32672	295	32240	40624	34312	32936	
5512	32512	296	34064	40708	34284	32968	
5513	32304	297	34416	40588	34264	32920	
5514	32496	298	35152	40648	34264	32944	
5515	32464	299	33984	40640	34256	32936	
5516	32672	300	32016	40640	34256	32936	
5517	32448	301	31648	40660	34276	32936	
5518	32416	302	31696	40616	34256	32912	
5519	32496	303	29184	40708	34224	32952	
5520	32544	304	27344	40680	34240	32976	
5521	32768	305	28992	40680	34240	32976	
5522	32352	306	30512	40648	34248	32960	
5523	32368	307	31104	40640	34248	32960	
5524	32464	308	33504	40760	34240	32952	
5525	32368	309	34144	40704	34232	33056	
5526	32528	310	34064	40704	34232	33056	
5527	32480	311	33120	40684	34232	33048	
5528	32432	312	31376	40632	34216	32984	
5529	32240	313	31184	40688	34240	33080	
5530	32496	314	32768	40640	34200	33080	
5531	32640	315	33312	40640	34200	33080	
5532	32448	316	33296	40632	34264	33088	
5533	32224	317	34512	40632	34276	33064	
5534	32304	318	34880	40636	34248	33064	
5535	32496	319	34016	40652	34268	33016	
5536	32624	320	34304	40652	34268	33016	
5537	32480	321	33088	40620	34268	33048	
5538	32368	322	32080	40688	34268	33120	
5539	32368	323	32336	40616	34292	33104	
5540	32624	324	34112	40640	34300	32984	
5541	32656	325	34576	40640	34300	32984	
5542	32512	326	33232	40604	34296	32976	
5543	32496	327	29232	40704	34268	33048	
5544	32544	328	30432	40696	34320	33064	
5545	32352	329	31120	40684	34320	32960	
5546	32640	330	30208	40684	34320	32960	
5547	32528	331	30576	40696	34312	32952	
5548	32592	332	30704	40604	34312	32976	
5549	32528	333	27856	40708	34300	32920	
5550	32448	334	31744	40648	34296	32968	
5551	32320	335	34048	40648	34296	32968	
5552	32144	336	33056	40672	34312	32904	
5553	32416	337	33232	40688	34280	32920	
5554	32496	338	34112	40640	34344	32936	
5555	32336	339	34768	40632	34304	32920	
5556	32416	340	33808	40632	34304	32920	
5557	32480	341	32864	40568	34328	32904	
5558	32528	342	32688	40640	34288	32880	
5559	32544	343	33008	40596	34304	32856	
5560	32448	344	32816	40672	34328	32888	
5561	32448	345	32112	40672	34328	32888	
5562	32448	346	32608	40584	34312	32880	
5563	32688	347	33312	40640	34288	32888	
5564	32768	348	33728	40672	34328	32920	
5565	32560	349	34144	40636	34360	32928	
5566	32672	350	33872	40636	34360	32928	
5567	32320	351	33552	40676	34320	32936	
5568	32384	352	33600	40660	34328	32936	
5569	32656	353	31856	40676	34356	32984	
5570	32496	354	29952	40696	34320	32936	
5571	32384	355	29712	40696	34320	32936	
5572	32400	356	31680	40652	34312	32976	
5573	32336	357	32336	40744	34312	32992	
5574	32272	358	32320	40732	34348	32976	
5575	32416	359	30864	40704	34312	32984	
5576	32368	360	29760	40684	34300	33040	
5577	32464	361	30704	40684	34300	33040	
5578	32288	362	32160	40724	34272	33056	
5579	32320	363	31552	40780	34304	33088	
5580	32384	364	31856	40752	34296	33080	
5581	32800	365	33408	40712	34268	33096	
5582	32352	366	34224	40712	34268	33096	
5583	32384	367	33744	40732	34300	33032	
5584	32592	368	34016	40744	34240	33080	
5585	32512	369	34544	40668	34244	33000	
5586	32704	370	33552	40676	34232	32960	
5587	32368	371	33792	40676	34232	32960	
5588	32368	372	33728	40676	34216	33056	
5589	32464	373	31456	40624	34256	33000	
5590	32592	374	29872	40672	34216	33032	
5591	32368	375	29856	40688	34248	33032	
5592	32448	376	31264	40688	34248	33032	
5593	32416	377	33936	40688	34232	32992	
5594	32752	378	36000	40720	34272	33056	
5595	32544	379	32544	40660	34248	33000	
5596	32528	380	28240	40732	34232	33072	
5597	32304	381	31008	40732	34232	33072	
5598	32464	382	31696	40660	34252	32960	
5599	32608	383	33184	40688	34256	32968	
5600	32400	384	33264	40684	34256	32960	
5601	32592	385	33344	40576	34224	32960	
5602	32480	386	33856	40576	34224	32960	
5603	32528	387	34576	40652	34276	33000	
5604	32560	388	33584	40660	34256	32984	
5605	32416	389	32736	40620	34276	32984	
5606	32560	390	30832	40696	34268	33008	
5607	32624	391	28656	40696	34268	33008	
5608	32416	392	28496	40572	34284	33008	
5609	32416	393	32160	40632	34288	32960	
5610	32224	394	35248	40696	34280	33016	
5611	32192	395	35968	40676	34312	32952	
5612	32272	396	34112	40676	34312	32952	
5613	32416	397	32080	40716	34332	33064	
5614	32480	398	30592	40648	34312	32960	
5615	32432	399	33536	40716	34336	32928	
5616	32672	400	34064	40724	34344	32928	
5617	32480	401	32528	40724	34344	32928	
5618	32448	402	31344	40664	34312	32968	
5619	32560	403	30816	40724	34336	32968	
5620	32688	404	31456	40684	34368	32952	
5621	32512	405	30672	40652	34344	32952	
5622	32240	406	31360	40652	34344	32952	
5623	32512	407	31904	40680	34344	33000	
5624	32448	408	32320	40664	34364	32944	
5625	32288	409	33024	40724	34344	32912	
5626	32304	410	33776	40620	34372	32952	
5627	32352	411	33536	40620	34372	32952	
5628	32560	412	33120	40704	34364	32896	
5629	32736	413	31760	40656	34376	32952	
5630	32704	414	31312	40604	34360	32944	
5631	32704	415	32480	40668	34328	32936	
5632	32400	416	34224	40668	34328	32936	
5633	32480	417	34752	40660	34364	32928	
5634	32384	418	34784	40616	34384	32960	
5635	32560	419	32944	40632	34356	32944	
5636	32640	420	29696	40612	34368	32880	
5637	32544	421	29136	40612	34368	32880	
5638	32560	422	29664	40656	34368	32888	
5639	32368	423	31616	40624	34396	32880	
5640	32560	424	33584	40648	34352	32848	
5641	32592	425	34336	40768	34344	32912	
5642	32080	426	34688	40768	34344	32912	
5643	32336	427	34224	40676	34320	32912	
5644	32464	428	32960	40688	34344	32936	
5645	32432	429	32032	40688	34320	32936	
5646	32688	430	30272	40708	34276	32928	
5647	32384	431	29600	40708	34276	32928	
5648	32560	432	30528	40700	34304	32944	
5649	32368	433	32336	40676	34300	32960	
5650	32608	434	32624	40640	34304	32968	
5651	32512	435	32560	40680	34264	33008	
5652	32416	436	33760	40680	34264	33008	
5653	32368	437	34016	40648	34260	32984	
5654	32368	438	32896	40712	34256	33072	
5655	32400	439	32496	40680	34224	33024	
5656	32816	440	32448	40724	34248	33048	
5657	32368	441	32944	40724	34248	33048	
5658	32528	442	33568	40712	34208	33048	
5659	32608	443	32496	40684	34200	33056	
5660	32624	444	31088	40760	34216	33112	
5661	32464	445	30544	40744	34232	33192	
5662	32160	446	32912	40744	34232	33192	
5663	32224	447	33616	40696	34200	33128	
5664	32288	448	33344	40760	34204	33096	
5665	32544	449	32000	40788	34196	33096	
5666	32608	450	33936	40740	34176	33136	
5667	32688	451	33904	40740	34176	33136	
5668	32464	452	34096	40712	34180	33080	
5669	32304	453	34240	40732	34232	33064	
5670	32576	454	33632	40752	34204	33120	
5671	32688	455	32464	40696	34152	33120	
5672	32448	456	31200	40696	34152	33120	
5673	32320	457	30096	40716	34172	33104	
5674	32496	458	30464	40788	34196	33096	
5675	32592	459	30192	40776	34160	33048	
5676	32496	460	31472	40708	34128	32992	
5677	32416	461	31408	40708	34128	32992	
5678	32400	462	30288	40660	34188	33072	
5679	32448	463	31792	40660	34184	32952	
5680	32528	464	34848	40684	34160	32968	
5681	32448	465	34096	40672	34196	32976	
5682	32448	466	33472	40672	34196	32976	
5683	32656	467	31424	40612	34252	32944	
5684	32464	468	29552	40616	34240	32944	
5685	32464	469	31760	40660	34240	32984	
5686	32432	470	32912	40668	34240	32976	
5687	32304	471	33280	40668	34240	32976	
5688	32432	472	34144	40680	34268	32960	
5689	32592	473	34048	40680	34272	32960	
5690	32672	474	33472	40648	34264	32928	
5691	32704	475	32080	40660	34312	32984	
5692	32624	476	32080	40660	34312	32984	
5693	32528	477	32880	40688	34332	32968	
5694	32432	478	35104	40716	34312	32968	
5695	32416	479	34368	40688	34352	32976	
5696	32352	480	32112	40688	34340	32968	
5697	32240	481	32656	40688	34340	32968	
5698	32576	482	32528	40744	34368	32952	
5699	32512	483	30576	40688	34352	32936	
5700	32448	484	31664	40724	34384	32928	
5701	32512	485	30768	40740	34388	32928	
5702	32256	486	30608	40740	34388	32928	
5703	32608	487	30992	40704	34372	32872	
5704	32496	488	33776	40744	34392	32824	
5705	32496	489	34512	40732	34416	32896	
5706	32480	490	33968	40684	34392	32832	
5707	32208	491	31280	40684	34392	32832	
5708	32352	492	28992	40640	34456	32872	
5709	32512	493	28816	40612	34424	32856	
5710	32512	494	30624	40632	34408	32808	
5711	32512	495	32544	40648	34432	32912	
5712	32464	496	33136	40648	34432	32912	
5713	32592	497	34352	40652	34416	32840	
5714	32560	498	34944	40616	34416	32872	
5715	32368	499	35136	40604	34408	32824	
5716	32560	500	34784	40620	34472	32808	
5717	32624	501	33632	40620	34472	32808	
5718	32784	502	33024	40628	34432	32864	
5719	32416	503	32560	40624	34396	32880	
5720	32720	504	30432	40668	34408	32872	
5721	32528	505	29472	40640	34424	32864	
5722	32224	506	31648	40640	34424	32864	
5723	32656	507	31648	40732	34400	32872	
5724	32240	508	31600	40752	34400	32864	
5725	32288	509	31600	40660	34376	32848	
5726	32400	510	31040	40716	34364	32824	
5727	32240	511	33200	40716	34364	32824	
5728	32416	512	34000	40732	34408	32920	
5729	32592	513	33312	40768	34328	32952	
5730	32640	514	32768	40780	34328	33056	
5731	32304	515	32784	40724	34312	33040	
5732	32656	516	33120	40724	34312	33040	
5733	32768	517	32832	40732	34312	32960	
5734	32400	518	31312	40768	34268	33048	
5735	32496	519	32096	40724	34260	33096	
5736	32480	520	32544	40752	34248	33008	
5737	32224	521	31792	40752	34248	33008	
5738	32592	522	32208	40688	34232	33104	
5739	32576	523	33008	40724	34260	33104	
5740	32624	524	32976	40656	34224	33112	
5741	32528	525	32848	40732	34268	33136	
5742	32496	526	32592	40732	34268	33136	
5743	32656	527	32880	40696	34224	33008	
5744	32528	528	32976	40696	34188	33080	
5745	32608	529	32416	40704	34200	33152	
5746	32320	530	32416	40744	34208	33160	
5747	32336	531	32016	40744	34208	33160	
5748	32528	532	32512	40768	34172	33120	
5749	32560	533	33472	40712	34184	33104	
5750	32352	534	34768	40752	34204	33120	
5751	32256	535	35120	40788	34136	33104	
5752	32464	536	35952	40788	34136	33104	
5753	32288	537	34896	40696	34112	33152	
5754	32288	538	32752	40724	34144	33152	
5755	32480	539	31344	40716	34084	33168	
5756	32528	540	29744	40696	34136	33104	
5757	32544	541	30192	40696	34136	33104	
5758	32848	542	28288	40732	34136	33128	
5759	32720	543	26336	40732	34168	33064	
5760	32448	544	27520	40684	34172	33072	
5761	32416	545	31168	40704	34168	33064	
5762	32224	546	33632	40704	34168	33064	
5763	32432	547	31792	40640	34188	33064	
5764	32640	548	32496	40724	34212	33072	
5765	32624	549	33424	40624	34192	33096	
5766	32288	550	31888	40640	34176	33024	
5767	32336	551	33216	40640	34176	33024	
5768	32592	552	35088	40648	34188	33080	
5769	32256	553	36224	40648	34200	32992	
5770	32336	554	36080	40640	34232	33008	
5771	32496	555	35152	40588	34208	32976	
5772	32544	556	31456	40588	34208	32976	
5773	32560	557	31792	40552	34216	32976	
5774	32496	558	29408	40592	34268	32944	
5775	32656	559	29536	40624	34272	32952	
5776	32512	560	31376	40628	34272	32936	
5777	32288	561	31584	40628	34272	32936	
5778	32672	562	31824	40656	34328	32928	
5779	32512	563	32752	40624	34296	32880	
5780	32320	564	33696	40644	34304	32856	
5781	32544	565	33888	40668	34320	32864	
5782	32400	566	33792	40668	34320	32864	
5783	32400	567	33664	40788	34336	32936	
5784	32352	568	33200	40732	34352	32936	
5785	32352	569	33696	40724	34372	32912	
5786	32192	570	35520	40640	34380	32968	
5787	32512	571	33072	40640	34380	32968	
5788	32608	572	31392	40668	34408	32928	
5789	32528	573	31312	40780	34392	32912	
5790	32640	574	30528	40752	34400	32904	
5791	32672	575	30752	40760	34424	33000	
5792	32432	576	32416	40760	34424	33000	
5793	32608	577	33168	40760	34436	32936	
5794	32496	578	31856	40768	34416	32896	
5795	32592	579	30960	40660	34408	32880	
5796	32640	580	32800	40680	34424	32920	
5797	32432	581	30816	40680	34424	32920	
5798	32384	582	31280	40724	34408	32920	
5799	32272	583	32496	40704	34464	32832	
5800	32464	584	31344	40660	34408	32904	
5801	32304	585	32864	40668	34408	32896	
5802	32336	586	33200	40668	34408	32896	
5803	32560	587	32992	40592	34384	32904	
5804	32416	588	32928	40640	34376	32880	
5805	32432	589	33872	40648	34396	32872	
5806	32320	590	34528	40604	34364	32888	
5807	32400	591	34832	40604	34364	32888	
5808	32608	592	34672	40668	34380	32840	
5809	32400	593	34304	40716	34344	32920	
5810	32592	594	33520	40668	34352	32928	
5811	32448	595	31680	40708	34328	32960	
5812	32416	596	30192	40708	34328	32960	
5813	32592	597	28656	40676	34312	32944	
5814	32480	598	27440	40712	34280	32912	
5815	32608	599	28032	40688	34320	32968	
5816	32544	600	33040	40676	34320	33064	
5817	32400	601	34896	40676	34320	33064	
5818	32240	602	34752	40604	34284	32960	
5819	32592	603	34784	40676	34312	33064	
5820	32368	604	33856	40648	34268	33000	
5821	32400	605	32928	40668	34252	33048	
5822	32352	606	33056	40668	34252	33048	
5823	32336	607	31936	40732	34276	33104	
5824	32560	608	30704	40636	34256	33072	
5825	32592	609	28368	40632	34248	33080	
5826	32384	610	26368	40588	34216	33072	
5827	32480	611	31120	40588	34216	33072	
5828	32496	612	34304	40596	34248	33120	
5829	32448	613	35184	40668	34240	33096	
5830	32608	614	36192	40696	34204	33048	
5831	32416	615	35200	40684	34248	33040	
5832	32512	616	34384	40684	34248	33040	
5833	32528	617	33216	40696	34248	33048	
5834	32576	618	32176	40684	34248	33072	
5835	32512	619	31904	40780	34240	33048	
5836	32416	620	31920	40732	34232	33056	
5837	32688	621	31568	40732	34232	33056	
5838	32688	622	32672	40800	34256	33032	
5839	32352	623	32912	40704	34240	32976	
5840	32576	624	32544	40736	34224	32992	
5841	32480	625	33264	40688	34248	32968	
5842	32368	626	32288	40688	34248	32968	
5843	32560	627	31072	40744	34256	33104	
5844	32544	628	30480	40760	34252	33048	
5845	32448	629	30256	40696	34264	33104	
5846	32400	630	33968	40768	34268	33024	
5847	32368	631	34336	40768	34268	33024	
5848	32592	632	34592	40668	34284	32992	
5849	32576	633	34464	40712	34268	32968	
5850	32640	634	32448	40660	34276	33048	
5851	32560	635	31696	40696	34256	33040	
5852	32320	636	31696	40696	34256	33040	
5853	32544	637	31408	40740	34256	33056	
5854	32752	638	30544	40688	34276	32992	
5855	32480	639	32560	40688	34248	32992	
5856	32384	640	31856	40688	34276	32960	
5857	32128	641	31840	40688	34276	32960	
5858	32512	642	32240	40668	34276	33072	
5859	32416	643	29648	40640	34288	32952	
5860	32272	644	30784	40696	34304	32944	
5861	32208	645	33280	40660	34300	32976	
5862	32384	646	33744	40660	34300	32976	
5863	32528	647	33840	40632	34336	32952	
5864	32336	648	34144	40668	34320	32928	
5865	32336	649	33744	40684	34348	32936	
5866	32384	650	34112	40724	34344	32960	
5867	32640	651	33520	40724	34344	32960	
5868	32464	652	32208	40660	34332	32920	
5869	32512	653	31728	40664	34328	32928	
5870	32768	654	31312	40676	34360	32912	
5871	32528	655	31392	40716	34344	32928	
5872	32544	656	32160	40716	34344	32928	
5873	32368	657	33088	40732	34328	32928	
5874	32384	658	33792	40772	34360	32920	
5875	32448	659	33312	40744	34360	32976	
5876	32400	660	34128	40768	34376	32968	
5877	32080	661	34480	40768	34376	32968	
5878	32560	662	33744	40760	34380	32976	
5879	32448	663	33056	40744	34352	32920	
5880	32512	664	31488	40708	34384	32952	
5881	32528	665	31088	40744	34364	32992	
5882	32688	666	29472	40744	34364	32992	
5883	32640	667	29952	40676	34356	32960	
5884	32624	668	29664	40712	34328	32920	
5885	32512	669	30640	40696	34328	32968	
5886	32448	670	32160	40724	34356	32992	
5887	32400	671	32368	40724	34356	32992	
5888	32368	672	31536	40716	34356	32960	
5889	32208	673	31584	40688	34296	32960	
5890	32512	674	34128	40668	34336	32960	
5891	32496	675	35456	40716	34312	32976	
5892	32368	676	35424	40716	34312	32976	
5893	32544	677	35616	40680	34328	32944	
5894	32464	678	35568	40632	34304	32984	
5895	32448	679	32176	40596	34296	32936	
5896	32272	680	30224	40648	34312	32968	
5897	32464	681	29552	40648	34312	32968	
5898	32688	682	28496	40624	34284	32904	
5899	32560	683	28448	40612	34284	32920	
5900	32512	684	30176	40648	34292	32944	
5901	32448	685	33984	40620	34268	32896	
5902	32608	686	36048	40620	34268	32896	
5903	32752	687	36432	40604	34276	32920	
5904	32400	688	35232	40592	34296	32920	
5905	32688	689	32672	40656	34280	32960	
5906	32432	690	32080	40624	34268	32944	
5907	32448	691	31008	40624	34268	32944	
5908	32448	692	32128	40592	34292	32944	
5909	32576	693	32272	40612	34276	32920	
5910	32400	694	29072	40596	34292	32936	
5911	32512	695	31024	40660	34312	32936	
5912	32544	696	32944	40660	34312	32936	
5913	32320	697	33040	40688	34300	32944	
5914	32544	698	33568	40648	34280	32928	
5915	32448	699	32944	40704	34304	32952	
5916	32240	700	32736	40736	34280	33000	
5917	32224	701	33424	40736	34280	33000	
5918	32528	702	33328	40752	34268	33008	
5919	32416	703	33280	40788	34280	33088	
5920	32304	704	32592	40672	34264	32984	
5921	32400	705	31520	40752	34272	33032	
5922	32480	706	30416	40752	34272	33032	
5923	32272	707	31568	40676	34288	33056	
5924	32624	708	32336	40740	34300	32968	
5925	32704	709	33120	40764	34272	33008	
5926	32448	710	33312	40716	34312	33080	
5927	32464	711	33168	40716	34312	33080	
5928	32576	712	32896	40780	34292	33056	
5929	32544	713	32944	40744	34284	33064	
5930	32448	714	32432	40732	34312	33008	
5931	32304	715	32768	40708	34320	33072	
5932	32368	716	32784	40708	34320	33072	
5933	32368	717	32912	40696	34312	33000	
5934	32672	718	32976	40724	34264	33040	
5935	32720	719	33872	40732	34328	33080	
5936	32432	720	34176	40760	34320	33008	
5937	32640	721	34704	40760	34320	33008	
5938	32400	722	35936	40696	34344	33064	
5939	32528	723	34000	40768	34320	32968	
5940	32736	724	31232	40744	34312	32976	
5941	32352	725	32864	40760	34304	32928	
5942	32432	726	33136	40760	34304	32928	
5943	32560	727	31488	40752	34336	32936	
5944	32544	728	30800	40732	34304	32960	
5945	32480	729	26784	40740	34296	32976	
5946	32432	730	24816	40736	34288	32968	
5947	32368	731	26448	40736	34288	32968	
5948	32256	732	29872	40696	34304	32960	
5949	32576	733	33472	40676	34312	32944	
5950	32560	734	33712	40652	34284	32928	
5951	32352	735	34112	40596	34304	32976	
5952	32656	736	32528	40596	34304	32976	
5953	32432	737	32272	40604	34288	32944	
5954	32480	738	31648	40628	34320	32960	
5955	32624	739	31824	40616	34264	32912	
5956	32384	740	33440	40632	34288	32880	
5957	32416	741	34112	40632	34288	32880	
5958	32544	742	34112	40576	34300	32960	
5959	32688	743	34240	40616	34312	32880	
5960	32704	744	34208	40552	34280	32880	
5961	32432	745	34016	40592	34284	32848	
5962	32480	746	33696	40592	34284	32848	
5963	32288	747	33712	40568	34288	32880	
5964	32112	748	33440	40624	34284	32944	
5965	32432	749	33152	40640	34320	32888	
5966	32176	750	33168	40624	34292	32912	
5967	32144	751	32992	40624	34292	32912	
5968	32480	752	32192	40752	34296	32920	
5969	32704	753	32224	40760	34276	32936	
5970	32624	754	31856	40716	34296	32928	
5971	32496	755	31936	40780	34304	32976	
5972	32592	756	33984	40780	34304	32976	
5973	32544	757	34400	40784	34276	33016	
5974	32560	758	35008	40744	34304	32968	
5975	32560	759	34432	40768	34284	33032	
5976	32640	760	30752	40752	34300	32960	
5977	32608	761	31136	40752	34300	32960	
5978	32480	762	31056	40752	34320	33024	
5979	32608	763	30608	40732	34296	33056	
5980	32432	764	28288	40788	34288	33088	
5981	32240	765	28736	40784	34248	33080	
5982	32512	766	31728	40784	34248	33080	
5983	32496	767	32080	40732	34296	33096	
5984	32448	768	32496	40676	34288	32992	
5985	32464	769	33648	40772	34296	33072	
5986	32320	770	34064	40708	34304	32984	
5987	32784	771	33600	40708	34304	32984	
5988	32448	772	30768	40704	34288	33016	
5989	32576	773	30256	40656	34288	33000	
5990	32368	774	32816	40612	34312	32968	
5991	32464	775	34288	40592	34276	32984	
5992	32560	776	33520	40592	34276	32984	
5993	32592	777	32448	40704	34288	32952	
5994	32544	778	32976	40612	34312	32992	
5995	32560	779	34192	40556	34292	32960	
5996	32304	780	34496	40588	34296	32960	
5997	32336	781	34208	40588	34296	32960	
5998	32384	782	33184	40596	34296	32952	
5999	32352	783	31056	40596	34260	32952	
6000	32288	784	31232	40616	34284	32920	
6001	32528	785	31200	40564	34260	32944	
6002	32608	786	31184	40564	34260	32944	
6003	32640	787	32544	40660	34268	32880	
6004	32464	788	33088	40600	34268	32976	
6005	32704	789	32192	40688	34292	32976	
6006	32416	790	32656	40656	34304	32960	
6007	32496	791	34288	40656	34304	32960	
6008	32704	792	33568	40648	34312	32960	
6009	32304	793	33168	40632	34276	33040	
6010	32496	794	33680	40772	34264	33008	
6011	32320	795	30496	40688	34256	33000	
6012	32448	796	27904	40688	34256	33000	
6013	32480	797	31328	40784	34336	33008	
6014	32528	798	33536	40660	34280	33048	
6015	32480	799	33104	40784	34276	33032	
6016	32576	800	32400	40772	34344	33096	
6017	32560	801	32656	40772	34344	33096	
6018	32368	802	30400	40736	34296	33056	
6019	32432	803	30144	40732	34288	33088	
6020	32528	804	29408	40640	34296	33064	
6021	32320	805	32272	40724	34288	33048	
6022	32320	806	33968	40684	34296	33016	
6023	32416	807	34544	40684	34296	33016	
6024	32464	808	34576	40716	34284	32992	
6025	32496	809	33248	40656	34304	33008	
6026	32448	810	33152	40628	34304	33032	
6027	32624	811	32880	40640	34276	32984	
6028	32544	812	33344	40640	34276	32984	
6029	32608	813	33344	40576	34260	32976	
6030	32368	814	33904	40648	34268	32960	
6031	32240	815	34448	40648	34304	33000	
6032	32432	816	33664	40660	34304	32920	
6033	32480	817	33232	40660	34304	32920	
6034	32512	818	33824	40660	34300	32928	
6035	32608	819	34992	40724	34304	32912	
6036	32224	820	33296	40684	34284	32904	
6037	32656	821	31744	40620	34304	32936	
6038	32736	822	30800	40620	34304	32936	
6039	32544	823	29520	40688	34296	32936	
6040	32416	824	24848	40704	34276	32952	
6041	32368	825	24928	40640	34312	32920	
6042	32464	826	29936	40580	34284	32920	
6043	32560	827	34128	40580	34284	32920	
6044	32352	828	34080	40704	34276	32888	
6045	32544	829	34368	40632	34288	32944	
6046	32448	830	35056	40676	34304	32896	
6047	32576	831	33424	40648	34276	32928	
6048	32608	832	32256	40648	34276	32928	
6049	32560	833	32160	40596	34320	32912	
6050	32432	834	32592	40612	34328	32896	
6051	32624	835	32608	40632	34348	32928	
6052	32496	836	32800	40648	34320	32896	
6053	32368	837	32320	40648	34320	32896	
6054	32464	838	32976	40604	34348	32920	
6055	32480	839	33120	40584	34352	32928	
6056	32480	840	32992	40600	34328	32944	
6057	32368	841	33296	40660	34336	32928	
6058	32592	842	33584	40660	34336	32928	
6059	32640	843	33936	40640	34336	32976	
6060	32464	844	34528	40648	34328	33000	
6061	32608	845	36912	40648	34328	32984	
6062	32512	846	35712	40720	34344	32944	
6063	32448	847	34960	40720	34344	32944	
6064	32656	848	33904	40772	34328	32968	
6065	32384	849	27984	40768	34344	33040	
6066	32480	850	24160	40768	34336	33016	
6067	32480	851	25456	40732	34352	33016	
6068	32528	852	29600	40732	34352	33016	
6069	32400	853	32400	40696	34352	32992	
6070	32320	854	34064	40724	34336	33000	
6071	32432	855	32736	40688	34368	33024	
6072	32384	856	33456	40772	34364	32936	
6073	32320	857	33712	40772	34364	32936	
6074	32560	858	33632	40724	34340	32952	
6075	32400	859	31408	40668	34300	32928	
6076	32240	860	32096	40648	34312	32992	
6077	32448	861	31376	40632	34328	32960	
6078	32208	862	32496	40632	34328	32960	
6079	32608	863	32448	40620	34264	32960	
6080	32240	864	33808	40640	34304	32992	
6081	32416	865	33968	40652	34312	33000	
6082	32752	866	32320	40668	34284	32976	
6083	32512	867	32048	40668	34284	32976	
6084	32576	868	32400	40672	34280	33040	
6085	32464	869	32992	40632	34304	32992	
6086	32416	870	33024	40604	34248	32960	
6087	32528	871	32992	40668	34292	32976	
6088	32512	872	33888	40668	34292	32976	
6089	32288	873	33488	40708	34268	32960	
6090	32496	874	33088	40660	34204	32960	
6091	32432	875	32752	40656	34268	32976	
6092	32608	876	32544	40772	34240	32928	
6093	32576	877	32208	40772	34240	32928	
6094	32400	878	31808	40648	34248	32976	
6095	32624	879	33296	40716	34240	32960	
6096	32272	880	34448	40732	34232	33040	
6097	32608	881	33568	40768	34252	33032	
6098	32624	882	32976	40768	34252	33032	
6099	32528	883	31696	40752	34248	33080	
6100	32384	884	31776	40752	34240	33064	
6101	32352	885	31856	40800	34256	33056	
6102	32624	886	33392	40796	34276	33072	
6103	32576	887	33488	40796	34276	33072	
6104	32496	888	31488	40788	34232	33024	
6105	32352	889	29008	40776	34224	33112	
6106	32464	890	26784	40772	34264	33128	
6107	32432	891	26224	40680	34216	33088	
6108	32464	892	31120	40680	34216	33088	
6109	32624	893	33904	40732	34240	33088	
6110	32592	894	34224	40696	34284	33032	
6111	32672	895	33936	40684	34280	32976	
6112	32720	896	34544	40640	34296	33008	
6113	32576	897	34432	40640	34296	33008	
6114	32784	898	34384	40708	34312	32992	
6115	32480	899	33104	40632	34268	32960	
6116	32112	900	33152	40660	34296	32968	
6117	32080	901	31472	40640	34288	32960	
6118	32144	902	31744	40640	34288	32960	
6119	32176	903	33984	40668	34304	32936	
6120	32320	904	34480	40724	34304	32944	
6121	32512	905	34112	40616	34280	32920	
6122	32640	906	32352	40668	34356	32936	
6123	32496	907	30800	40668	34356	32936	
6124	32528	908	31200	40668	34304	32928	
6125	32608	909	31712	40696	34344	32896	
6126	32640	910	33344	40704	34344	32880	
6127	32576	911	34336	40792	34364	32928	
6128	32608	912	33008	40792	34364	32928	
6129	32688	913	32384	40688	34336	32952	
6130	32544	914	28688	40772	34348	32928	
6131	32448	915	28832	40780	34364	32920	
6132	32656	916	31824	40724	34372	32928	
6133	32608	917	33904	40724	34372	32928	
6134	32416	918	33264	40752	34336	32952	
6135	32480	919	33600	40764	34364	32920	
6136	32576	920	34992	40732	34396	32928	
6137	32576	921	35296	40744	34348	32944	
6138	32416	922	35040	40744	34348	32944	
6139	32480	923	34000	40760	34356	32976	
6140	32256	924	33216	40744	34416	32936	
6141	32352	925	31600	40740	34372	32944	
6142	32496	926	29728	40640	34340	32984	
6143	32448	927	28736	40640	34340	32984	
6144	32496	928	28736	40588	34364	32968	
6145	32576	929	30160	40688	34380	32944	
6146	32544	930	28880	40632	34364	32952	
6147	32496	931	31792	40660	34320	32960	
6148	32400	932	34544	40660	34320	32960	
6149	32528	933	35904	40596	34328	32960	
6150	32336	934	34224	40632	34364	32952	
6151	32432	935	32784	40612	34344	32920	
6152	32496	936	31856	40652	34312	32880	
6153	32400	937	30624	40652	34312	32880	
6154	32560	938	31888	40604	34292	32912	
6155	32720	939	33008	40632	34312	32880	
6156	32512	940	33104	40696	34296	32912	
6157	32688	941	34016	40716	34304	32912	
6158	32464	942	33488	40716	34304	32912	
6159	32480	943	32784	40616	34244	32872	
6160	32544	944	33344	40632	34264	32904	
6161	32368	945	30944	40696	34256	32888	
6162	32464	946	31024	40664	34232	32880	
6163	32480	947	32992	40664	34232	32880	
6164	32448	948	33536	40648	34240	32896	
6165	32560	949	33360	40712	34248	32936	
6166	32544	950	33088	40660	34272	32944	
6167	32624	951	33216	40672	34240	32912	
6168	32480	952	33264	40672	34240	32912	
6169	32480	953	33072	40724	34196	32936	
6170	32528	954	33632	40688	34224	33072	
6171	32416	955	32512	40744	34256	33088	
6172	32224	956	31744	40724	34216	33032	
6173	32352	957	33904	40724	34216	33032	
6174	32432	958	34928	40760	34240	33088	
6175	32624	959	34480	40760	34240	33096	
6176	32512	960	34080	40732	34204	33096	
6177	32352	961	32080	40704	34216	33184	
6178	32752	962	29568	40704	34216	33184	
6179	32736	963	27632	40656	34244	33176	
6180	32624	964	27200	40760	34240	33096	
6181	32512	965	29376	40724	34200	33088	
6182	32544	966	30704	40788	34224	33096	
6183	32480	967	32064	40788	34224	33096	
6184	32384	968	34912	40784	34284	33128	
6185	32448	969	35440	40660	34240	33112	
6186	32448	970	32944	40648	34264	33136	
6187	32656	971	32128	40660	34240	33056	
6188	32464	972	31200	40660	34240	33056	
6189	32464	973	30640	40640	34240	33072	
6190	32256	974	32080	40684	34284	32984	
6191	32448	975	31440	40640	34260	33056	
6192	32208	976	33024	40704	34304	32936	
6193	32640	977	34928	40704	34304	32936	
6194	32384	978	35312	40688	34304	32936	
6195	32384	979	35728	40628	34276	32872	
6196	32096	980	34832	40632	34296	32912	
6197	32432	981	32992	40632	34292	32848	
6198	32464	982	31872	40632	34292	32848	
6199	32560	983	29728	40660	34292	32872	
6200	32528	984	28256	40572	34304	32872	
6201	32656	985	28960	40668	34312	32816	
6202	32688	986	30736	40660	34352	32832	
6203	32608	987	32448	40660	34352	32832	
6204	32592	988	33616	40620	34328	32912	
6205	32512	989	34160	40648	34364	32888	
6206	32320	990	34112	40624	34356	32840	
6207	32608	991	33712	40696	34408	32928	
6208	32416	992	33696	40696	34408	32928	
6209	32416	993	33120	40624	34384	32904	
6210	32320	994	33232	40668	34408	32920	
6211	32448	995	33184	40704	34424	32896	
6212	32640	996	33424	40736	34436	32920	
6213	32432	997	32720	40736	34436	32920	
6214	32496	998	32480	40664	34424	32904	
6215	32448	999	32192	40676	34400	32976	
6216	32592	1000	33456	40712	34448	32928	
6217	32624	1001	33616	40680	34416	32912	
6218	32416	1002	34160	40680	34416	32912	
6219	32432	1003	32752	40736	34456	32928	
6220	32512	1004	30352	40724	34448	32904	
6221	32352	1005	29344	40752	34408	32968	
6222	32480	1006	29008	40708	34436	33032	
6223	32544	1007	32800	40708	34436	33032	
6224	32608	1008	33424	40676	34400	32984	
6225	32464	1009	34032	40704	34384	32952	
6226	32528	1010	34944	40724	34400	32968	
6227	32576	1011	32608	40724	34448	33032	
6228	32432	1012	32080	40724	34448	33032	
6229	32528	1013	30960	40688	34416	32960	
6230	32336	1014	31712	40716	34364	32936	
6231	32368	1015	31840	40660	34344	32912	
6232	32144	1016	30672	40668	34364	32944	
6233	32400	1017	30608	40668	34364	32944	
6234	32368	1018	32192	40696	34360	32960	
6235	32368	1019	32960	40624	34372	32952	
6236	32688	1020	32016	40604	34372	32952	
6237	32384	1021	32176	40604	34336	32944	
6238	32384	1022	32880	40604	34336	32944	
6239	32592	1023	32864	40584	34340	32936	
6240	32528	1024	33104	40596	34336	32888	
6241	32464	1025	33968	40588	34372	32944	
6242	32544	1026	33824	40616	34356	32896	
6243	32560	1027	34560	40616	34356	32896	
6244	32608	1028	33856	40556	34356	32880	
6245	32240	1029	33696	40604	34280	32808	
6246	32560	1030	32672	40604	34312	32912	
6247	32512	1031	31264	40644	34288	32912	
6248	32608	1032	32656	40644	34288	32912	
6249	32608	1033	32688	40684	34292	32920	
6250	32320	1034	32688	40640	34288	32936	
6251	32432	1035	30224	40624	34284	32984	
6252	32432	1036	28896	40624	34240	32960	
6253	32592	1037	27888	40624	34240	32960	
6254	32512	1038	28912	40592	34296	32984	
6255	32448	1039	32048	40640	34276	32984	
6256	32496	1040	34096	40640	34256	32976	
6257	32336	1041	36032	40632	34268	32944	
6258	32304	1042	35648	40632	34268	32944	
6259	32304	1043	34336	40660	34276	32968	
6260	32176	1044	34048	40676	34240	33032	
6261	32752	1045	33408	40660	34240	33008	
6262	32528	1046	32304	40676	34240	32984	
6263	32592	1047	31744	40676	34240	32984	
6264	32368	1048	28096	40660	34276	33072	
6265	32448	1049	28400	40660	34240	32992	
6266	32768	1050	29376	40716	34256	33024	
6267	32560	1051	31696	40696	34220	32992	
6268	32640	1052	32704	40696	34220	32992	
6269	32544	1053	32816	40668	34248	33024	
6270	32464	1054	34736	40696	34268	33016	
6271	32672	1055	35840	40688	34276	33016	
6272	32496	1056	34800	40616	34256	33000	
6273	32448	1057	33984	40616	34256	33000	
6274	32528	1058	34752	40660	34288	33024	
6275	32384	1059	33600	40676	34276	33032	
6276	32400	1060	32848	40648	34248	33000	
6277	32384	1061	32960	40676	34264	32968	
6278	32464	1062	33696	40676	34264	32968	
6279	32544	1063	31888	40672	34276	32976	
6280	32432	1064	29664	40632	34248	32912	
6281	32400	1065	28016	40712	34276	32968	
6282	32448	1066	30624	40640	34268	32944	
6283	32416	1067	32496	40640	34268	32944	
6284	32272	1068	33744	40660	34276	32904	
6285	32256	1069	34288	40664	34320	32976	
6286	32736	1070	33984	40676	34272	32960	
6287	32544	1071	32192	40708	34268	32880	
6288	32544	1072	31184	40708	34268	32880	
6289	32448	1073	32336	40588	34284	32952	
6290	32368	1074	31328	40648	34276	32904	
6291	32576	1075	32368	40716	34268	32968	
6292	32528	1076	34400	40660	34288	32968	
6293	32560	1077	34096	40660	34288	32968	
6294	32560	1078	33712	40668	34344	32984	
6295	32384	1079	31232	40708	34312	32904	
6296	32384	1080	30672	40732	34304	32944	
6297	32400	1081	31728	40668	34320	32920	
6298	32592	1082	32848	40668	34320	32920	
6299	32416	1083	32768	40644	34296	32928	
6300	32400	1084	33072	40616	34344	32960	
6301	32544	1085	32896	40660	34312	32984	
6302	32224	1086	33552	40712	34344	32968	
6303	32464	1087	34480	40712	34344	32968	
6304	32512	1088	36176	40604	34360	32992	
6305	32496	1089	34784	40648	34312	32936	
6306	32480	1090	30544	40696	34352	32952	
6307	32480	1091	28944	40688	34396	32944	
6308	32688	1092	30640	40688	34396	32944	
6309	32384	1093	31264	40596	34356	32936	
6310	32400	1094	28784	40592	34360	32936	
6311	32496	1095	29344	40660	34388	32936	
6312	32384	1096	31696	40640	34360	32880	
6313	32512	1097	31712	40640	34360	32880	
6314	32368	1098	34416	40616	34408	32952	
6315	32272	1099	37008	40708	34344	32880	
6316	32528	1100	36480	40640	34360	32896	
6317	32224	1101	33408	40608	34364	32936	
6318	32608	1102	29472	40608	34364	32936	
6319	32432	1103	28480	40600	34368	32848	
6320	32432	1104	28592	40572	34364	32832	
6321	32400	1105	28112	40632	34336	32872	
6322	32512	1106	31088	40604	34392	32912	
6323	32624	1107	34384	40604	34392	32912	
6324	32656	1108	35472	40616	34408	32872	
6325	32576	1109	35376	40556	34304	32832	
6326	32528	1110	34800	40640	34344	32920	
6327	32688	1111	34560	40656	34364	32872	
6328	32560	1112	34912	40656	34364	32872	
6329	32480	1113	33712	40624	34336	32880	
6330	32512	1114	32528	40624	34312	32960	
6331	32400	1115	31040	40656	34372	32928	
6332	32480	1116	28880	40764	34364	32912	
6333	32096	1117	29312	40764	34364	32912	
6334	32384	1118	31072	40628	34364	32952	
6335	32608	1119	33360	40704	34364	32944	
6336	32464	1120	34016	40648	34320	32936	
6337	32512	1121	34208	40656	34344	32944	
6338	32496	1122	34064	40656	34344	32944	
6339	32528	1123	33840	40644	34356	32936	
6340	32432	1124	34992	40660	34304	32952	
6341	32592	1125	34416	40676	34312	33016	
6342	32224	1126	33376	40688	34248	32960	
6343	32544	1127	32576	40652	34276	32976	
6344	32736	1128	31280	40652	34276	32976	
6345	32496	1129	29760	40680	34276	32992	
6346	32544	1130	29136	40680	34284	33008	
6347	32512	1131	30288	40788	34268	32968	
6348	32416	1132	32048	40724	34264	32992	
6349	32240	1133	31632	40724	34264	32992	
6350	32208	1134	31008	40668	34276	32992	
6351	32608	1135	32096	40764	34216	33000	
6352	32528	1136	31856	40664	34232	32952	
6353	32240	1137	32784	40648	34244	32984	
6354	32448	1138	34272	40648	34244	32984	
6355	32560	1139	33888	40704	34256	32960	
6356	32592	1140	32496	40644	34248	32952	
6357	32672	1141	31920	40668	34248	32992	
6358	32688	1142	32288	40680	34248	32984	
6359	32576	1143	31536	40680	34248	32984	
6360	32384	1144	32208	40628	34284	32968	
6361	32272	1145	33136	40584	34264	32976	
6362	32496	1146	34272	40656	34216	32968	
6363	32560	1147	33600	40656	34240	32952	
6364	32656	1148	32160	40656	34240	32952	
6365	32688	1149	31808	40652	34248	32952	
6366	32368	1150	31696	40656	34224	32984	
6367	32528	1151	32080	40632	34268	32936	
6368	32560	1152	33040	40688	34268	32928	
6369	32544	1153	33072	40688	34268	32928	
6370	32544	1154	33552	40668	34272	32984	
6371	32400	1155	33264	40696	34276	32936	
6372	32688	1156	29856	40732	34240	32960	
6373	32496	1157	30976	40756	34276	33056	
6374	32416	1158	32880	40756	34276	33056	
6375	32336	1159	33744	40712	34248	33120	
6376	32576	1160	33536	40768	34264	33104	
6377	32240	1161	33328	40816	34248	33048	
6378	32400	1162	33792	40804	34264	33120	
6379	32432	1163	33136	40804	34264	33120	
6380	32256	1164	33120	40788	34276	33120	
6381	32224	1165	33024	40720	34268	33136	
6382	32432	1166	33280	40780	34340	33056	
6383	32528	1167	32704	40780	34276	33080	
6384	32784	1168	31360	40780	34276	33080	
6385	32464	1169	29808	40688	34288	33088	
6386	32688	1170	30832	40724	34288	33152	
6387	32576	1171	32832	40724	34320	33152	
6388	32560	1172	33536	40680	34356	33112	
6389	32560	1173	29792	40680	34356	33112	
6390	32384	1174	28656	40688	34336	33056	
6391	32384	1175	30400	40760	34352	33016	
6392	32512	1176	31360	40680	34312	32928	
6393	32464	1177	34832	40660	34372	32952	
6394	32464	1178	36240	40660	34372	32952	
6395	32272	1179	35600	40640	34364	32936	
6396	32304	1180	34032	40624	34372	32888	
6397	32400	1181	31792	40592	34344	32888	
6398	32432	1182	30272	40624	34320	32896	
6399	32560	1183	29888	40624	34320	32896	
6400	32592	1184	30160	40656	34408	32912	
6401	32576	1185	32272	40668	34380	32832	
6402	32288	1186	31424	40656	34400	32880	
6403	32480	1187	31440	40620	34376	32848	
6404	32576	1188	32208	40620	34376	32848	
6405	32400	1189	32784	40652	34352	32800	
6406	32512	1190	32864	40668	34384	32816	
6407	32176	1191	32608	40624	34400	32856	
6408	32688	1192	34400	40644	34384	32824	
6409	32416	1193	34960	40644	34384	32824	
6410	32096	1194	34960	40632	34380	32848	
6411	32496	1195	34592	40732	34364	32840	
6412	32640	1196	33696	40676	34352	32872	
6413	32448	1197	33664	40652	34328	32856	
6414	32304	1198	32960	40652	34328	32856	
6415	32400	1199	30528	40740	34388	32880	
6416	32528	1200	30592	40676	34372	32840	
6417	32304	1201	32320	40604	34328	32904	
6418	32544	1202	33568	40656	34340	32872	
6419	32464	1203	32944	40656	34340	32872	
6420	32320	1204	32032	40712	34344	32904	
6421	32480	1205	32496	40632	34356	32936	
6422	32048	1206	31952	40616	34308	32880	
6423	32656	1207	30240	40592	34276	32864	
6424	32640	1208	27760	40592	34276	32864	
6425	32496	1209	27968	40580	34312	32936	
6426	32640	1210	29968	40604	34300	32928	
6427	32400	1211	33552	40588	34280	32912	
6428	32448	1212	34736	40604	34268	32936	
6429	32368	1213	34800	40604	34268	32936	
6430	32368	1214	34208	40596	34292	32928	
6431	32368	1215	34304	40612	34268	32904	
6432	32240	1216	34864	40628	34232	32936	
6433	32608	1217	31792	40596	34256	32960	
6434	32592	1218	30704	40596	34256	32960	
6435	32480	1219	33152	40632	34272	32968	
6436	32576	1220	33600	40596	34248	32928	
6437	32608	1221	31952	40624	34256	32936	
6438	32672	1222	30608	40688	34224	33000	
6439	32688	1223	30544	40688	34224	33000	
6440	32336	1224	30800	40660	34244	32936	
6441	32688	1225	32560	40676	34240	32936	
6442	32640	1226	33296	40652	34240	32912	
6443	32496	1227	33984	40708	34248	33008	
6444	32240	1228	34192	40708	34248	33008	
6445	32208	1229	33760	40716	34248	32936	
6446	32288	1230	33712	40732	34248	32960	
6447	32288	1231	32544	40688	34248	32992	
6448	32352	1232	31488	40660	34276	32944	
6449	32432	1233	30608	40660	34276	32944	
6450	32528	1234	31520	40704	34288	32960	
6451	32688	1235	32880	40680	34284	33024	
6452	32432	1236	33792	40736	34256	33040	
6453	32544	1237	33824	40668	34224	32976	
6454	32448	1238	34144	40668	34224	32976	
6455	32512	1239	34192	40668	34248	33016	
6456	32576	1240	33392	40744	34272	33048	
6457	32480	1241	32080	40760	34280	33016	
6458	32672	1242	31216	40720	34248	33032	
6459	32368	1243	30240	40720	34248	33032	
6460	32304	1244	31264	40660	34268	33008	
6461	32432	1245	31616	40684	34268	33064	
6462	32464	1246	32192	40740	34276	32984	
6463	32560	1247	31536	40680	34248	33000	
6464	32656	1248	28864	40680	34248	33000	
6465	32464	1249	27696	40668	34268	32960	
6466	32528	1250	31008	40696	34264	32984	
6467	32464	1251	32880	40620	34276	33000	
6468	32400	1252	33760	40644	34276	33024	
6469	32672	1253	33024	40644	34276	33024	
6470	32320	1254	33680	40604	34304	33032	
6471	32592	1255	33584	40660	34296	33088	
6472	32352	1256	33568	40668	34296	32992	
6473	32512	1257	33984	40660	34268	33032	
6474	32368	1258	33456	40660	34268	33032	
6475	32624	1259	34160	40648	34304	33040	
6476	32432	1260	33088	40640	34304	33016	
6477	32160	1261	32144	40660	34320	32960	
6478	32336	1262	32240	40688	34312	32952	
6479	32336	1263	33584	40688	34312	32952	
6480	32288	1264	34112	40704	34352	32944	
6481	32560	1265	33296	40676	34360	33016	
6482	32752	1266	32576	40712	34336	32968	
6483	32560	1267	31088	40696	34312	33000	
6484	32608	1268	30816	40696	34312	33000	
6485	32320	1269	30592	40568	34336	32944	
6486	32592	1270	30256	40696	34380	32952	
6487	32592	1271	32128	40724	34396	32944	
6488	32368	1272	33600	40684	34400	32944	
6489	32512	1273	33536	40684	34400	32944	
6490	32384	1274	32896	40788	34364	32936	
6491	32480	1275	33024	40732	34416	32960	
6492	32352	1276	32368	40752	34400	32944	
6493	32544	1277	33088	40792	34392	32912	
6494	32528	1278	33312	40792	34392	32912	
6495	32464	1279	33552	40792	34444	32928	
6496	32608	1280	34528	40720	34448	32952	
6497	32400	1281	34208	40684	34364	32952	
6498	32320	1282	32464	40652	34388	32952	
6499	32608	1283	32176	40652	34388	32952	
6500	32464	1284	30144	40624	34352	32904	
6501	32368	1285	28528	40652	34424	32904	
6502	32656	1286	30880	40696	34360	32856	
6503	32528	1287	31600	40640	34332	32880	
6504	32640	1288	32224	40640	34332	32880	
6505	32640	1289	34256	40604	34384	32920	
6506	32464	1290	35424	40620	34400	32912	
6507	32560	1291	35520	40652	34336	32856	
6508	32528	1292	34320	40624	34336	32840	
6509	32432	1293	33648	40624	34336	32840	
6510	32336	1294	32608	40600	34376	32872	
6511	32384	1295	30976	40596	34336	32824	
6512	32320	1296	28032	40596	34304	32872	
6513	32608	1297	21056	40548	34312	32904	
6514	32432	1298	25504	40548	34312	32904	
6515	32512	1299	30704	40532	34288	32880	
6516	32768	1300	36160	40544	34288	32824	
6517	32416	1301	36608	40556	34280	32848	
6518	32448	1302	35088	40592	34276	32832	
6519	32512	1303	33856	40592	34276	32832	
6520	32480	1304	33296	40596	34248	32848	
6521	32592	1305	31904	40584	34276	32848	
6522	32256	1306	32160	40560	34292	32816	
6523	32336	1307	33136	40528	34256	32856	
6524	32544	1308	33456	40528	34256	32856	
6525	32624	1309	32928	40616	34268	32848	
6526	32560	1310	32896	40596	34256	32840	
6527	32480	1311	34320	40628	34292	32960	
6528	32752	1312	34304	40632	34284	32992	
6529	32368	1313	34736	40632	34284	32992	
6530	32544	1314	34672	40632	34296	32944	
6531	32512	1315	35136	40656	34312	32960	
6532	32272	1316	34848	40660	34320	32960	
6533	32640	1317	31376	40668	34328	32968	
6534	32336	1318	27712	40668	34328	32968	
6535	32368	1319	26320	40652	34352	33016	
6536	32576	1320	28896	40724	34320	32984	
6537	32384	1321	32096	40676	34328	33048	
6538	32480	1322	34720	40768	34320	32968	
6539	32432	1323	34656	40768	34320	32968	
6540	32432	1324	34016	40744	34328	32968	
6541	32608	1325	32704	40696	34312	33008	
6542	32400	1326	32464	40760	34312	33016	
6543	32640	1327	32432	40656	34356	33056	
6544	32448	1328	32032	40656	34356	33056	
6545	32576	1329	30848	40764	34336	32976	
6546	32752	1330	32608	40664	34360	32944	
6547	32304	1331	33312	40680	34288	33000	
6548	32528	1332	32400	40656	34312	32976	
6549	32464	1333	32064	40656	34312	32976	
6550	32416	1334	31616	40660	34304	32984	
6551	32304	1335	31152	40640	34312	32992	
6552	32304	1336	32672	40656	34332	32984	
6553	32592	1337	33408	40668	34328	32904	
6554	32480	1338	32640	40668	34328	32904	
6555	32448	1339	32048	40584	34320	32960	
6556	32400	1340	32016	40624	34288	32912	
6557	32448	1341	32384	40660	34296	32928	
6558	32480	1342	33888	40632	34312	32944	
6559	32384	1343	34576	40632	34312	32944	
6560	32208	1344	34368	40640	34320	32928	
6561	32752	1345	32704	40696	34304	32944	
6562	32784	1346	30608	40676	34304	32936	
6563	32592	1347	31760	40744	34320	32944	
6564	32432	1348	31728	40744	34320	32944	
6565	32368	1349	32112	40792	34312	32960	
6566	32512	1350	31952	40676	34304	32968	
6567	32384	1351	31072	40744	34336	33040	
6568	32384	1352	32320	40660	34276	32944	
6569	32464	1353	34096	40660	34276	32944	
6570	32576	1354	34640	40684	34304	32952	
6571	32608	1355	33872	40688	34280	33008	
6572	32496	1356	32768	40684	34296	33024	
6573	32640	1357	32448	40748	34276	33008	
6574	32400	1358	29776	40748	34276	33008	
6575	32464	1359	28416	40624	34276	33000	
6576	32448	1360	29984	40656	34276	33048	
6577	32416	1361	32720	40624	34284	33056	
6578	32368	1362	32704	40680	34304	33032	
6579	32480	1363	32224	40680	34304	33032	
6580	32464	1364	32560	40740	34320	33048	
6581	32544	1365	33440	40680	34304	33040	
6582	32304	1366	34384	40660	34312	33032	
6583	32528	1367	35584	40684	34304	33024	
6584	32352	1368	36160	40684	34304	33024	
6585	32496	1369	35376	40660	34304	32984	
6586	32640	1370	33088	40652	34312	32928	
6587	32512	1371	32592	40688	34304	32952	
6588	32320	1372	29760	40676	34304	32944	
6589	32416	1373	26816	40676	34304	32944	
6590	32336	1374	27584	40596	34320	32960	
6591	32560	1375	29216	40684	34260	32912	
6592	32528	1376	31696	40704	34288	32920	
6593	32432	1377	32608	40640	34288	32864	
6594	32384	1378	32656	40640	34288	32864	
6595	32496	1379	32944	40704	34312	32928	
6596	32464	1380	33424	40732	34296	32928	
6597	32720	1381	34656	40680	34320	32912	
6598	32432	1382	34272	40684	34320	32928	
6599	32400	1383	33696	40684	34320	32928	
6600	32432	1384	32656	40612	34364	32936	
6601	32432	1385	33504	40668	34296	32880	
6602	32576	1386	33216	40640	34336	32912	
6603	32480	1387	32976	40624	34344	32872	
6604	32384	1388	34208	40624	34344	32872	
6605	32384	1389	32992	40668	34376	32864	
6606	32640	1390	33168	40668	34360	32888	
6607	32480	1391	32656	40660	34356	32872	
6608	32496	1392	30144	40656	34400	32864	
6609	32528	1393	32368	40656	34400	32864	
6610	32576	1394	34096	40612	34364	32888	
6611	32592	1395	34464	40668	34364	32872	
6612	32544	1396	32928	40676	34396	32840	
6613	32576	1397	31552	40732	34392	32912	
6614	32432	1398	32112	40732	34392	32912	
6615	32336	1399	30720	40640	34400	32920	
6616	32496	1400	29216	40620	34416	32920	
6617	32544	1401	28816	40648	34360	32904	
6618	32288	1402	30480	40648	34368	32864	
6619	32240	1403	30944	40648	34368	32864	
6620	32368	1404	31248	40652	34356	32928	
6621	32480	1405	33776	40640	34368	32912	
6622	32320	1406	34256	40596	34380	32880	
6623	32176	1407	33776	40656	34340	32944	
6624	32448	1408	31728	40656	34340	32944	
6625	32448	1409	30864	40568	34344	32936	
6626	32352	1410	33616	40640	34352	32936	
6627	32496	1411	34608	40696	34360	32928	
6628	32400	1412	34384	40632	34352	32928	
6629	32624	1413	33744	40632	34352	32928	
6630	32656	1414	34432	40664	34336	32928	
6631	32736	1415	34848	40656	34376	32952	
6632	32496	1416	34656	40660	34364	32888	
6633	32480	1417	33648	40696	34328	32968	
6634	32448	1418	31648	40696	34328	32968	
6635	32480	1419	30176	40704	34364	32944	
6636	32400	1420	30912	40712	34372	32952	
6637	32640	1421	30320	40760	34312	32920	
6638	32560	1422	26016	40688	34288	32896	
6639	32368	1423	29536	40688	34288	32896	
6640	32544	1424	31648	40676	34284	32968	
6641	32480	1425	33120	40704	34260	32944	
6642	32432	1426	33632	40680	34216	32920	
6643	32496	1427	33872	40728	34276	32904	
6644	32320	1428	34656	40728	34276	32904	
6645	32528	1429	33984	40672	34272	32960	
6646	32672	1430	33616	40736	34276	32944	
6647	32416	1431	33696	40704	34240	33016	
6648	32400	1432	30816	40760	34268	32968	
6649	32336	1433	30640	40760	34268	32968	
6650	32384	1434	33056	40696	34256	32952	
6651	32448	1435	34496	40736	34216	33008	
6652	32512	1436	33696	40712	34188	32968	
6653	32512	1437	32592	40660	34240	32984	
6654	32448	1438	31248	40660	34272	33088	
6655	32576	1439	31968	40660	34272	33088	
6656	32544	1440	32480	40716	34240	33008	
6657	32544	1441	33680	40716	34256	32936	
6658	32464	1442	34368	40688	34256	33024	
6659	32672	1443	33744	40724	34292	33000	
6660	32304	1444	32448	40724	34292	33000	
6661	32240	1445	32112	40548	34272	33000	
6662	32656	1446	32624	40776	34276	33072	
6663	32624	1447	32048	40680	34264	33032	
6664	32400	1448	32048	40628	34288	32952	
6665	32496	1449	30384	40628	34288	32952	
6666	32400	1450	28352	40668	34236	32984	
6667	32448	1451	29904	40716	34288	33008	
6668	32448	1452	31600	40688	34312	33000	
6669	32288	1453	33552	40740	34328	32968	
6670	32576	1454	34336	40740	34328	32968	
6671	32448	1455	33472	40788	34276	32944	
6672	32624	1456	32176	40688	34296	32928	
6673	32448	1457	31200	40704	34320	33008	
6674	32464	1458	32080	40624	34328	32960	
6675	32448	1459	32800	40624	34328	32960	
6676	32480	1460	32928	40620	34344	32944	
6677	32576	1461	33440	40708	34320	32944	
6678	32352	1462	33776	40656	34336	32952	
6679	32400	1463	34448	40716	34336	32912	
6680	32592	1464	34384	40716	34336	32912	
6681	32576	1465	33872	40620	34320	32936	
6682	32528	1466	33616	40624	34288	32952	
6683	32512	1467	30960	40648	34352	32912	
6684	32448	1468	29328	40696	34344	32864	
6685	32496	1469	29552	40696	34344	32864	
6686	32592	1470	30624	40688	34360	32880	
6687	32608	1471	33424	40712	34304	32864	
6688	32528	1472	33232	40640	34328	32944	
6689	32144	1473	33024	40668	34344	32912	
6690	32288	1474	33616	40668	34344	32912	
6691	32592	1475	33712	40596	34304	32952	
6692	32448	1476	34448	40736	34348	32840	
6693	32688	1477	34496	40680	34344	32920	
6694	32464	1478	34112	40660	34332	32920	
6695	32496	1479	32304	40660	34332	32920	
6696	32208	1480	30432	40612	34348	32936	
6697	32400	1481	26240	40668	34352	32912	
6698	32528	1482	26816	40640	34336	32912	
6699	32336	1483	31456	40656	34344	32896	
6700	32224	1484	31808	40656	34344	32896	
6701	32480	1485	29840	40596	34356	32920	
6702	32400	1486	30496	40676	34356	32848	
6703	32672	1487	32880	40656	34376	32872	
6704	32512	1488	35472	40668	34364	32912	
6705	32608	1489	35904	40668	34364	32912	
6706	32144	1490	33824	40676	34388	32904	
6707	32512	1491	32416	40684	34368	32920	
6708	32416	1492	33568	40660	34336	32912	
6709	32432	1493	34224	40676	34328	32952	
6710	32560	1494	34960	40676	34328	32952	
6711	32496	1495	34720	40632	34320	33024	
6712	32448	1496	33024	40672	34296	32936	
6713	32608	1497	31952	40668	34328	32976	
6714	32368	1498	29792	40696	34312	32976	
6715	32576	1499	29728	40696	34312	32976	
6716	32224	1500	30720	40680	34312	32976	
6717	32464	1501	32720	40708	34304	32936	
6718	32304	1502	32752	40656	34284	32960	
6719	32400	1503	31632	40744	34340	32944	
6720	32640	1504	31568	40744	34340	32944	
6721	32416	1505	32832	40720	34304	32960	
6722	32560	1506	34128	40676	34300	32952	
6723	32448	1507	34624	40716	34292	32984	
6724	32352	1508	34016	40724	34260	32960	
6725	32608	1509	35040	40724	34260	32960	
6726	32368	1510	34992	40660	34284	32936	
6727	32480	1511	33136	40688	34272	32952	
6728	32576	1512	33280	40724	34264	32912	
6729	32560	1513	31872	40688	34268	32976	
6730	32656	1514	29152	40688	34268	32976	
6731	32464	1515	28624	40716	34260	32968	
6732	32560	1516	29824	40668	34296	32928	
6733	32448	1517	30848	40696	34288	32976	
6734	32512	1518	30816	40704	34312	32928	
6735	32400	1519	31616	40704	34312	32928	
6736	32512	1520	32944	40768	34272	32928	
6737	32480	1521	33232	40760	34280	33016	
6738	32336	1522	34656	40716	34304	32968	
6739	32288	1523	34304	40688	34276	33000	
6740	32704	1524	34400	40688	34276	33000	
6741	32304	1525	33104	40732	34260	32960	
6742	32496	1526	27824	40676	34276	32960	
6743	32640	1527	30960	40676	34284	32944	
6744	32384	1528	32304	40752	34284	32960	
6745	32592	1529	32816	40752	34284	32960	
6746	32768	1530	33072	40612	34276	33024	
6747	32576	1531	32944	40648	34288	32976	
6748	32544	1532	33520	40660	34288	33056	
6749	32400	1533	33168	40676	34296	32992	
6750	32512	1534	32160	40676	34296	32992	
6751	32384	1535	32160	40652	34308	33000	
6752	32608	1536	32192	40640	34288	33000	
6753	32464	1537	33088	40688	34296	33000	
6754	32352	1538	32608	40696	34304	33000	
6755	32432	1539	33152	40696	34304	33000	
6756	32464	1540	34160	40644	34304	32968	
6757	32576	1541	33552	40648	34312	32976	
6758	32368	1542	33328	40716	34312	32992	
6759	32496	1543	31280	40668	34320	32944	
6760	32576	1544	29584	40668	34320	32944	
6761	32304	1545	31520	40668	34336	33088	
6762	32784	1546	32832	40760	34312	32968	
6763	32608	1547	32288	40688	34328	32968	
6764	32384	1548	33024	40656	34328	33016	
6765	32448	1549	32560	40656	34328	33016	
6766	32400	1550	32864	40660	34368	32960	
6767	32624	1551	31648	40688	34336	32936	
6768	32352	1552	30576	40672	34312	32952	
6769	32560	1553	32016	40688	34320	32992	
6770	32416	1554	31408	40688	34320	32992	
6771	32128	1555	30496	40672	34308	32944	
6772	32608	1556	31376	40688	34328	32936	
6773	32576	1557	33072	40760	34352	32944	
6774	32112	1558	34048	40668	34344	32976	
6775	32624	1559	33984	40668	34344	32976	
6776	32288	1560	33088	40628	34356	32936	
6777	32384	1561	32064	40640	34328	32928	
6778	32608	1562	32064	40716	34312	32880	
6779	32320	1563	32096	40716	34344	32928	
6780	32640	1564	32368	40716	34344	32928	
6781	32336	1565	33264	40704	34364	32944	
6782	32624	1566	34176	40656	34400	32928	
6783	32336	1567	34000	40704	34376	32944	
6784	32272	1568	34400	40752	34320	32920	
6785	32592	1569	34480	40752	34320	32920	
6786	32464	1570	32064	40724	34392	32944	
6787	32624	1571	30960	40724	34344	32960	
6788	32512	1572	30752	40688	34368	32968	
6789	32560	1573	30624	40676	34364	32960	
6790	32544	1574	32512	40676	34364	32960	
6791	32416	1575	33408	40724	34388	32896	
6792	32496	1576	33648	40668	34344	32936	
6793	32416	1577	32528	40672	34312	32928	
6794	32304	1578	32144	40664	34328	32976	
6795	32608	1579	32000	40664	34328	32976	
6796	32624	1580	31488	40604	34304	32904	
6797	32592	1581	31936	40752	34348	32960	
6798	32528	1582	34384	40640	34336	32944	
6799	32432	1583	36400	40640	34372	32904	
6800	32592	1584	31680	40640	34372	32904	
6801	32496	1585	28640	40652	34364	32952	
6802	32288	1586	28432	40640	34380	32936	
6803	32352	1587	29072	40676	34336	32912	
6804	32576	1588	30496	40660	34352	32944	
6805	32592	1589	29680	40660	34352	32944	
6806	32544	1590	30896	40640	34344	32952	
6807	32576	1591	34512	40612	34336	32952	
6808	32496	1592	35280	40688	34328	32896	
6809	32288	1593	34368	40712	34288	32896	
6810	32304	1594	33536	40712	34288	32896	
6811	32320	1595	32080	40712	34312	32848	
6812	32352	1596	34128	40652	34336	32888	
6813	32784	1597	33280	40652	34340	32936	
6814	32400	1598	34176	40644	34312	32920	
6815	32704	1599	35328	40644	34312	32920	
6816	32416	1600	33104	40684	34368	32920	
6817	32656	1601	34224	40620	34336	32896	
6818	32672	1602	32800	40688	34304	32920	
6819	32384	1603	28128	40640	34336	32920	
6820	32272	1604	30560	40640	34336	32920	
6821	32640	1605	31584	40660	34320	32880	
6822	32480	1606	31008	40624	34288	32912	
6823	32256	1607	30736	40640	34328	32904	
6824	32128	1608	32288	40732	34312	32920	
6825	32480	1609	32448	40732	34312	32920	
6826	32464	1610	31968	40696	34312	32904	
6827	32224	1611	32464	40660	34312	32936	
6828	32400	1612	32400	40668	34304	32888	
6829	32400	1613	33344	40680	34332	32944	
6830	32336	1614	33888	40680	34332	32944	
6831	32576	1615	34128	40688	34328	32944	
6832	32480	1616	33216	40640	34336	32952	
6833	32736	1617	33248	40676	34336	32896	
6834	32464	1618	32208	40660	34296	32976	
6835	32464	1619	32720	40660	34296	32976	
6836	32512	1620	32928	40604	34328	32944	
6837	32736	1621	32912	40676	34344	32920	
6838	32416	1622	33424	40624	34312	32904	
6839	32224	1623	33712	40660	34344	32968	
6840	32608	1624	32832	40660	34344	32968	
6841	32416	1625	31952	40716	34304	32936	
6842	32608	1626	31600	40640	34264	32872	
6843	32656	1627	31888	40704	34336	32952	
6844	32576	1628	31248	40716	34304	32944	
6845	32480	1629	31232	40716	34304	32944	
6846	32544	1630	33632	40648	34296	33016	
6847	32496	1631	34896	40720	34288	32936	
6848	32400	1632	35936	40688	34248	32952	
6849	32288	1633	34384	40684	34296	32968	
6850	32560	1634	32016	40684	34296	32968	
6851	32512	1635	29488	40752	34288	32944	
6852	32480	1636	27808	40688	34292	32928	
6853	32288	1637	26880	40732	34284	32960	
6854	32368	1638	29552	40684	34284	32944	
6855	32736	1639	31008	40684	34284	32944	
6856	32240	1640	32720	40768	34292	32952	
6857	32544	1641	32720	40772	34276	32928	
6858	32480	1642	31968	40660	34256	33008	
6859	32448	1643	31568	40680	34312	32888	
6860	32544	1644	31920	40680	34312	32888	
6861	32656	1645	34336	40704	34288	32944	
6862	32544	1646	35248	40724	34288	32904	
6863	32192	1647	35056	40760	34272	32928	
6864	32432	1648	34640	40668	34256	32872	
6865	32400	1649	32720	40668	34256	32872	
6866	32560	1650	32256	40724	34276	32912	
6867	32720	1651	31536	40768	34296	32912	
6868	32592	1652	31824	40672	34312	32936	
6869	32592	1653	32608	40712	34288	32936	
6870	32688	1654	32880	40712	34288	32936	
6871	32416	1655	33056	40688	34344	32888	
6872	32544	1656	33392	40624	34336	32880	
6873	32432	1657	32656	40668	34312	32936	
6874	32528	1658	31840	40696	34336	32936	
6875	32464	1659	32752	40696	34336	32936	
6876	32432	1660	32672	40688	34360	32920	
6877	32592	1661	32704	40724	34356	32920	
6878	32688	1662	32816	40724	34352	32920	
6879	32736	1663	32800	40696	34344	32928	
6880	32496	1664	32192	40696	34344	32928	
6881	32416	1665	32736	40664	34352	32928	
6882	32144	1666	31856	40696	34376	32952	
6883	32352	1667	31888	40744	34336	32920	
6884	32448	1668	32880	40668	34356	32904	
6885	32544	1669	33152	40668	34356	32904	
6886	32400	1670	32336	40768	34380	32944	
6887	32720	1671	32928	40768	34372	32960	
6888	32464	1672	35168	40744	34392	32960	
6889	32480	1673	33920	40764	34364	32952	
6890	32560	1674	31200	40764	34364	32952	
6891	32608	1675	30784	40640	34360	32936	
6892	32320	1676	28624	40744	34356	32928	
6893	32496	1677	27952	40752	34352	32976	
6894	32384	1678	31904	40696	34364	32936	
6895	32512	1679	34704	40696	34364	32936	
6896	32384	1680	34848	40732	34352	32984	
6897	32544	1681	34432	40732	34368	32936	
6898	32448	1682	33824	40676	34352	32864	
6899	32416	1683	34240	40688	34344	32928	
6900	32528	1684	33344	40688	34344	32928	
6901	32208	1685	31728	40696	34352	32896	
6902	32416	1686	29328	40632	34356	32904	
6903	32640	1687	28544	40628	34360	32864	
6904	32528	1688	28208	40660	34364	32888	
6905	32288	1689	31552	40660	34364	32888	
6906	32368	1690	34896	40604	34372	32888	
6907	32288	1691	34144	40612	34352	32832	
6908	32416	1692	32672	40588	34328	32872	
6909	32432	1693	32432	40552	34352	32880	
6910	32544	1694	32768	40552	34352	32880	
6911	32416	1695	31296	40596	34344	32848	
6912	32576	1696	32032	40616	34324	32896	
6913	32608	1697	35008	40640	34348	32872	
6914	32464	1698	35584	40632	34336	32848	
6915	32640	1699	32496	40632	34336	32848	
6916	32736	1700	32336	40668	34284	32816	
6917	32592	1701	31712	40640	34304	32856	
6918	32704	1702	30784	40652	34312	32872	
6919	32560	1703	29904	40620	34284	32880	
6920	32416	1704	28944	40620	34284	32880	
6921	32400	1705	32016	40668	34304	32952	
6922	32400	1706	33744	40732	34296	32928	
6923	32080	1707	33968	40668	34264	32888	
6924	32416	1708	33280	40676	34248	32928	
6925	32480	1709	33232	40676	34248	32928	
6926	32544	1710	33520	40648	34292	32944	
6927	32640	1711	34512	40696	34268	32912	
6928	32400	1712	33856	40696	34292	32920	
6929	32384	1713	34784	40676	34312	32952	
6930	32560	1714	34688	40676	34312	32952	
6931	32736	1715	32944	40636	34304	32928	
6932	32672	1716	32064	40676	34264	32960	
6933	32512	1717	32800	40696	34280	32976	
6934	32464	1718	30912	40668	34320	32936	
6935	32512	1719	30288	40668	34320	32936	
6936	32496	1720	29248	40696	34320	32928	
6937	32608	1721	29856	40660	34268	32952	
6938	32224	1722	29840	40668	34304	32912	
6939	32464	1723	31456	40716	34304	32960	
6940	32400	1724	32144	40716	34304	32960	
6941	32560	1725	31888	40676	34280	32944	
6942	32528	1726	32128	40704	34300	32936	
6943	32608	1727	33808	40680	34304	32904	
6944	32464	1728	34016	40688	34292	32880	
6945	32432	1729	33632	40688	34292	32880	
6946	32592	1730	33424	40660	34284	32936	
6947	32416	1731	33280	40672	34276	32992	
6948	32512	1732	32912	40760	34280	32944	
6949	32544	1733	32944	40704	34284	32952	
6950	32240	1734	31456	40704	34284	32952	
6951	32464	1735	32096	40676	34296	32976	
6952	32480	1736	33088	40732	34280	32944	
6953	32432	1737	32496	40688	34312	32952	
6954	32480	1738	33072	40760	34296	32992	
6955	32496	1739	33408	40760	34296	32992	
6956	32576	1740	33840	40716	34304	33000	
6957	32720	1741	33776	40716	34288	32976	
6958	32512	1742	33008	40752	34304	33040	
6959	32368	1743	32688	40688	34328	33016	
6960	32544	1744	30640	40688	34328	33016	
6961	32640	1745	31328	40780	34340	32992	
6962	32496	1746	31232	40696	34336	33064	
6963	32224	1747	29632	40696	34300	33032	
6964	32608	1748	32800	40724	34296	33024	
6965	32800	1749	33520	40724	34296	33024	
6966	32704	1750	33584	40660	34304	32976	
6967	32640	1751	33104	40668	34304	32968	
6968	32384	1752	31920	40668	34328	33000	
6969	32448	1753	31040	40668	34328	32992	
6970	32288	1754	32032	40668	34328	32992	
6971	32368	1755	33424	40720	34320	32944	
6972	32288	1756	33184	40632	34344	32992	
6973	32288	1757	32704	40652	34312	32936	
6974	32192	1758	31424	40680	34320	32984	
6975	32464	1759	31776	40680	34320	32984	
6976	32624	1760	32352	40648	34276	32992	
6977	32400	1761	31456	40632	34284	32896	
6978	32336	1762	30544	40736	34336	32896	
6979	32704	1763	32112	40648	34336	32904	
6980	32576	1764	33856	40648	34336	32904	
6981	32672	1765	34720	40656	34340	32920	
6982	32688	1766	34144	40668	34336	32944	
6983	32432	1767	33808	40656	34304	32904	
6984	32432	1768	33136	40640	34328	32936	
6985	32448	1769	32192	40640	34328	32936	
6986	32672	1770	32096	40648	34328	32944	
6987	32640	1771	30096	40632	34320	32928	
6988	32304	1772	28464	40704	34344	32856	
6989	32288	1773	30560	40704	34352	32904	
6990	32400	1774	32224	40704	34352	32904	
6991	32704	1775	33824	40640	34312	32928	
6992	32544	1776	35008	40724	34336	32864	
6993	32336	1777	34336	40668	34340	32904	
6994	32448	1778	33360	40660	34336	32952	
6995	32656	1779	33456	40660	34336	32952	
6996	32368	1780	33552	40700	34352	32920	
6997	32448	1781	33104	40600	34328	32872	
6998	32304	1782	33536	40680	34328	32888	
6999	32592	1783	33632	40660	34356	32928	
7000	32400	1784	32128	40660	34356	32928	
7001	32656	1785	31664	40688	34352	32864	
7002	32672	1786	31520	40668	34332	32848	
7003	32496	1787	30544	40680	34328	32808	
7004	32336	1788	30736	40696	34304	32856	
7005	32400	1789	31568	40696	34304	32856	
7006	32496	1790	31904	40620	34336	32880	
7007	32368	1791	31120	40668	34344	32808	
7008	32304	1792	30640	40648	34352	32848	
7009	32400	1793	32400	40668	34348	32896	
7010	32272	1794	33024	40668	34348	32896	
7011	32464	1795	32672	40612	34328	32904	
7012	32432	1796	33504	40660	34356	32856	
7013	32224	1797	32144	40768	34288	32904	
7014	32560	1798	32768	40680	34312	32848	
7015	32304	1799	33120	40604	34276	32944	
7016	32608	1800	33376	40604	34276	32944	
7017	32576	1801	32928	40716	34284	32904	
7018	32416	1802	31824	40676	34328	32888	
7019	32528	1803	33408	40668	34304	32944	
7020	32464	1804	34240	40704	34304	32968	
7021	32528	1805	33536	40704	34304	32968	
7022	32336	1806	32960	40712	34336	32992	
7023	32272	1807	32352	40684	34288	33024	
7024	32272	1808	32112	40668	34276	32952	
7025	32416	1809	29648	40660	34296	32984	
7026	32640	1810	31568	40660	34296	32984	
7027	32592	1811	33120	40716	34312	32976	
7028	32176	1812	34272	40724	34336	33048	
7029	32560	1813	34912	40668	34272	32968	
7030	32464	1814	34544	40684	34288	32928	
7031	32608	1815	31808	40684	34288	32928	
7032	32480	1816	28928	40680	34296	32952	
7033	32368	1817	30432	40720	34304	33000	
7034	32624	1818	32528	40676	34276	33072	
7035	32432	1819	32592	40660	34240	33000	
7036	32512	1820	32784	40660	34240	33000	
7037	32608	1821	32048	40672	34264	32992	
7038	32320	1822	28816	40664	34256	33000	
7039	32448	1823	29632	40664	34240	32968	
7040	32416	1824	32816	40680	34276	33032	
7041	32416	1825	34016	40680	34276	33032	
7042	32480	1826	34304	40688	34252	33008	
7043	32416	1827	33520	40668	34248	32928	
7044	32560	1828	33104	40696	34260	32952	
7045	32368	1829	33312	40672	34264	32872	
7046	32624	1830	33408	40672	34264	32872	
7047	32544	1831	33248	40740	34280	32952	
7048	32480	1832	33344	40688	34232	32928	
7049	32368	1833	32256	40652	34276	32968	
7050	32576	1834	30672	40640	34276	32928	
7051	32608	1835	30464	40640	34276	32928	
7052	32368	1836	32240	40700	34288	32960	
7053	32336	1837	34464	40676	34276	32984	
7054	32336	1838	35168	40732	34280	32944	
7055	32432	1839	33888	40712	34272	32920	
7056	32448	1840	32864	40712	34272	32920	
7057	32464	1841	33232	40716	34312	32952	
7058	32416	1842	33760	40684	34312	32896	
7059	32480	1843	33216	40660	34328	32952	
7060	32496	1844	30992	40644	34320	32944	
7061	32576	1845	27856	40644	34320	32944	
7062	32512	1846	28944	40648	34312	32928	
7063	32336	1847	29664	40752	34292	32928	
7064	32560	1848	30000	40676	34320	32920	
7065	32528	1849	29792	40652	34336	32912	
7066	32560	1850	30832	40652	34336	32912	
7067	32496	1851	33440	40704	34320	32864	
7068	32064	1852	34016	40628	34344	32880	
7069	32400	1853	34144	40616	34284	32872	
7070	32352	1854	33984	40652	34328	32920	
7071	32384	1855	33696	40652	34328	32920	
7072	32544	1856	34208	40660	34372	32864	
7073	32448	1857	34544	40640	34356	32848	
7074	32640	1858	34272	40652	34364	32832	
7075	32480	1859	33424	40664	34368	32816	
7076	32576	1860	32416	40664	34368	32816	
7077	32544	1861	30640	40660	34388	32832	
7078	32352	1862	29680	40640	34380	32808	
7079	32496	1863	31360	40652	34408	32848	
7080	32464	1864	33232	40668	34400	32864	
7081	32544	1865	35744	40668	34400	32864	
7082	32576	1866	35776	40676	34376	32808	
7083	32384	1867	34224	40704	34388	32800	
7084	32560	1868	31744	40740	34376	32832	
7085	32400	1869	31584	40768	34388	32864	
7086	32288	1870	33504	40768	34388	32864	
7087	32432	1871	34304	40732	34336	32848	
7088	32304	1872	32896	40724	34384	32872	
7089	32432	1873	31664	40768	34384	32832	
7090	32512	1874	30560	40728	34336	32872	
7091	32688	1875	27024	40728	34336	32872	
7092	32432	1876	26064	40704	34356	32936	
7093	32416	1877	28352	40732	34328	32952	
7094	32560	1878	29072	40716	34336	32896	
7095	32560	1879	32448	40696	34344	32920	
7096	32464	1880	33856	40696	34344	32920	
7097	32256	1881	34928	40640	34280	32848	
7098	32320	1882	34400	40680	34352	32952	
7099	32624	1883	34528	40656	34300	32952	
7100	32448	1884	35568	40716	34280	32904	
7101	32768	1885	34480	40716	34280	32904	
7102	32464	1886	34592	40668	34304	32920	
7103	32304	1887	34320	40668	34248	32976	
7104	32448	1888	34272	40664	34292	32952	
7105	32496	1889	30944	40688	34320	32952	
7106	32448	1890	28112	40688	34320	32952	
7107	32176	1891	30256	40648	34284	32960	
7108	32576	1892	33808	40648	34304	32944	
7109	32672	1893	34224	40660	34292	32968	
7110	32624	1894	32848	40648	34328	32968	
7111	32384	1895	32688	40648	34328	32968	
7112	32448	1896	32128	40672	34300	32992	
7113	32304	1897	30880	40704	34284	32960	
7114	32416	1898	30688	40668	34288	32952	
7115	32272	1899	32320	40696	34288	33056	
7116	32672	1900	32320	40696	34288	33056	
7117	32464	1901	33088	40652	34308	32984	
7118	32512	1902	33184	40724	34272	32912	
7119	32336	1903	33248	40752	34288	33000	
7120	32480	1904	33088	40704	34276	33000	
7121	32640	1905	34112	40704	34276	33000	
7122	32624	1906	33968	40732	34312	32960	
7123	32576	1907	33312	40688	34268	33016	
7124	32528	1908	32704	40704	34288	32968	
7125	32592	1909	31984	40656	34268	32976	
7126	32448	1910	31392	40656	34268	32976	
7127	32256	1911	30528	40696	34304	32944	
7128	32240	1912	30576	40696	34264	32928	
7129	32320	1913	31760	40716	34288	32896	
7130	32368	1914	32224	40664	34304	32872	
7131	32576	1915	33184	40664	34304	32872	
7132	32384	1916	33952	40728	34304	32920	
7133	32256	1917	34624	40760	34268	32856	
7134	32608	1918	33840	40648	34276	32840	
7135	32464	1919	31632	40668	34276	32832	
7136	32544	1920	30800	40668	34276	32832	
7137	32480	1921	30288	40652	34268	32856	
7138	32416	1922	30432	40656	34300	32824	
7139	32560	1923	30960	40616	34272	32808	
7140	32560	1924	32800	40724	34312	32880	
7141	32496	1925	34176	40724	34312	32880	
7142	32448	1926	33840	40704	34296	32856	
7143	32512	1927	32064	40656	34320	32904	
7144	32432	1928	30144	40624	34312	32848	
7145	32448	1929	29936	40624	34320	32896	
7146	32688	1930	32592	40624	34320	32896	
7147	32512	1931	33904	40576	34328	32872	
7148	32464	1932	34656	40668	34344	32896	
7149	32352	1933	30320	40676	34328	32904	
7150	32352	1934	30288	40696	34336	32864	
7151	32304	1935	34064	40696	34336	32864	
7152	32320	1936	35040	40604	34336	32944	
7153	32336	1937	33728	40676	34328	32952	
7154	32640	1938	32320	40708	34328	32920	
7155	32448	1939	33472	40640	34344	32952	
7156	32800	1940	33648	40640	34344	32952	
7157	32528	1941	34064	40676	34336	32912	
7158	32528	1942	33680	40688	34320	32976	
7159	32784	1943	32512	40652	34328	33000	
7160	32592	1944	32512	40688	34336	32992	
7161	32544	1945	32208	40688	34336	32992	
7162	32448	1946	31488	40732	34312	32976	
7163	32096	1947	31472	40648	34304	32976	
7164	32336	1948	32048	40640	34336	33008	
7165	32464	1949	32656	40652	34296	33016	
7166	32464	1950	34560	40652	34296	33016	
7167	32160	1951	33120	40612	34356	33056	
7168	32384	1952	33184	40688	34328	32968	
7169	32544	1953	29936	40596	34312	32952	
7170	32528	1954	28208	40632	34308	32968	
7171	32640	1955	30096	40632	34308	32968	
7172	32384	1956	31904	40688	34304	32968	
7173	32464	1957	32736	40604	34356	32984	
7174	32368	1958	32544	40640	34284	32976	
7175	32496	1959	32432	40596	34320	32928	
7176	32656	1960	34144	40596	34320	32928	
7177	32432	1961	34096	40652	34308	32944	
7178	32528	1962	34128	40620	34336	32904	
7179	32592	1963	32256	40616	34320	32920	
7180	32640	1964	30544	40620	34360	32896	
7181	32592	1965	32592	40620	34360	32896	
7182	32384	1966	34080	40632	34296	32912	
7183	32432	1967	32384	40592	34296	32880	
7184	32176	1968	32400	40616	34288	32840	
7185	32416	1969	32320	40644	34320	32904	
7186	32512	1970	33184	40644	34320	32904	
7187	32544	1971	33984	40696	34268	32880	
7188	32496	1972	33760	40680	34304	32848	
7189	32448	1973	33184	40664	34312	32856	
7190	32528	1974	33136	40656	34276	32904	
7191	32608	1975	33552	40656	34276	32904	
7192	32368	1976	33168	40624	34280	32960	
7193	32384	1977	32832	40688	34288	32912	
7194	32496	1978	31216	40676	34308	32928	
7195	32480	1979	29888	40656	34312	32952	
7196	32400	1980	29344	40656	34312	32952	
7197	32464	1981	30336	40688	34304	32920	
7198	32544	1982	33008	40688	34304	32880	
7199	32432	1983	32880	40716	34296	33000	
7200	32544	1984	32256	40712	34356	32952	
7201	32576	1985	32576	40712	34356	32952	
7202	32464	1986	31840	40668	34356	32944	
7203	32384	1987	31600	40656	34352	32904	
7204	32496	1988	30256	40640	34356	32976	
7205	32528	1989	31856	40612	34348	32968	
7206	32464	1990	33024	40612	34348	32968	
7207	32448	1991	34960	40644	34328	32928	
7208	32464	1992	37008	40624	34328	32888	
7209	32400	1993	35600	40640	34320	32912	
7210	32560	1994	34896	40612	34336	32896	
7211	32512	1995	32144	40612	34336	32896	
7212	32368	1996	30864	40584	34364	32904	
7213	32464	1997	32992	40648	34320	32960	
7214	32272	1998	30752	40668	34312	32880	
7215	32560	1999	26720	40660	34312	32904	
7216	32688	2000	28080	40660	34312	32904	
7217	32480	2001	31904	40680	34328	32928	
7218	32576	2002	34304	40708	34336	32880	
7219	32304	2003	33776	40640	34288	32856	
7220	32512	2004	32624	40672	34312	32976	
7221	32528	2005	31680	40672	34312	32976	
7222	32224	2006	30704	40676	34312	32920	
7223	32528	2007	30304	40696	34260	32944	
7224	32544	2008	32448	40704	34320	32944	
7225	32448	2009	32736	40640	34304	32968	
7226	32384	2010	33632	40640	34304	32968	
7227	32272	2011	33888	40668	34328	32936	
7228	32544	2012	34560	40672	34312	32896	
7229	32432	2013	33920	40684	34312	32968	
7230	32480	2014	33712	40668	34300	32928	
7231	32592	2015	33952	40668	34300	32928	
7232	32544	2016	31984	40680	34296	32944	
7233	32320	2017	31360	40704	34328	32944	
7234	32720	2018	32352	40648	34268	32920	
7235	32336	2019	33568	40704	34296	32944	
7236	32640	2020	33200	40704	34296	32944	
7237	32448	2021	32672	40628	34312	32960	
7238	32464	2022	32944	40680	34256	32944	
7239	32752	2023	32672	40740	34264	32936	
7240	32576	2024	32976	40668	34268	32904	
7241	32304	2025	32176	40668	34268	32904	
7242	32144	2026	30864	40644	34280	32968	
7243	32272	2027	32560	40704	34256	32952	
7244	32624	2028	33264	40660	34288	32960	
7245	32768	2029	33488	40676	34276	32944	
7246	32672	2030	33056	40676	34276	32944	
7247	32560	2031	30800	40676	34264	32952	
7248	32544	2032	32032	40648	34292	32960	
7249	32432	2033	33792	40732	34264	32976	
7250	32496	2034	33664	40712	34264	32920	
7251	32448	2035	32416	40712	34264	32920	
7252	32320	2036	31376	40592	34256	32960	
7253	32416	2037	31168	40752	34268	32944	
7254	32448	2038	30144	40624	34276	32944	
7255	32416	2039	31088	40744	34256	32920	
7256	32320	2040	31904	40744	34256	32920	
7257	32496	2041	33184	40732	34312	32920	
7258	32336	2042	30352	40668	34288	32920	
7259	32800	2043	27776	40676	34320	32928	
7260	32592	2044	30816	40704	34324	32928	
7261	32560	2045	34112	40704	34324	32928	
7262	32416	2046	34144	40680	34360	32880	
7263	32448	2047	33264	40632	34276	32944	
7264	32416	2048	33056	40732	34304	32976	
7265	32576	2049	33024	40648	34336	32920	
7266	32496	2050	34096	40640	34304	32928	
7267	32432	2051	33440	40640	34304	32928	
7268	32512	2052	32560	40660	34292	32936	
7269	32640	2053	32832	40712	34320	32856	
7270	32608	2054	33168	40676	34328	32888	
7271	32560	2055	33408	40652	34360	32856	
7272	32288	2056	32528	40652	34360	32856	
7273	32496	2057	33200	40688	34348	32840	
7274	32208	2058	33440	40696	34344	32936	
7275	32272	2059	33664	40688	34320	32912	
7276	32432	2060	33152	40732	34388	32920	
7277	32608	2061	31920	40732	34388	32920	
7278	32400	2062	30816	40644	34352	32856	
7279	32432	2063	32672	40712	34356	32856	
7280	32608	2064	35616	40688	34308	32912	
7281	32464	2065	36048	40748	34352	32904	
7282	32640	2066	33248	40748	34352	32904	
7283	32400	2067	31280	40788	34328	32960	
7284	32432	2068	29312	40732	34320	32944	
7285	32560	2069	26944	40724	34364	32976	
7286	32512	2070	25344	40732	34364	32984	
7287	32400	2071	29888	40732	34364	32984	
7288	32528	2072	31360	40668	34320	33000	
7289	32400	2073	33888	40768	34284	32992	
7290	32544	2074	35504	40704	34320	33056	
7291	32320	2075	35296	40764	34312	32976	
7292	32432	2076	33072	40764	34312	32976	
7293	32384	2077	32144	40688	34356	32936	
7294	32688	2078	31936	40704	34352	32960	
7295	32592	2079	31776	40672	34320	32944	
7296	32448	2080	32992	40680	34296	32904	
7297	32512	2081	34528	40680	34296	32904	
7298	32624	2082	33568	40732	34352	32944	
7299	32448	2083	33632	40688	34292	32944	
7300	32512	2084	32944	40668	34284	32880	
7301	32528	2085	32352	40644	34288	32904	
7302	32512	2086	31824	40644	34288	32904	
7303	32512	2087	31568	40616	34336	32896	
7304	32592	2088	32304	40664	34276	32912	
7305	32528	2089	32752	40720	34268	32936	
7306	32368	2090	32832	40652	34260	32896	
7307	32368	2091	31952	40652	34260	32896	
7308	32272	2092	31584	40680	34276	32896	
7309	32640	2093	32240	40728	34288	32888	
7310	32400	2094	33200	40788	34268	32888	
7311	32336	2095	33168	40676	34272	32936	
7312	32400	2096	32032	40676	34272	32936	
7313	32352	2097	31808	40776	34296	32952	
7314	32640	2098	33104	40788	34292	32936	
7315	32512	2099	33728	40776	34240	32920	
7316	32576	2100	34272	40720	34220	32960	
7317	32448	2101	33280	40720	34220	32960	
7318	32480	2102	32384	40696	34224	32928	
7319	32416	2103	29744	40772	34296	32968	
7320	32448	2104	29728	40772	34208	32976	
7321	32704	2105	32848	40816	34276	33008	
7322	32560	2106	36000	40816	34276	33008	
7323	32320	2107	36720	40704	34276	33048	
7324	32432	2108	36336	40724	34248	32968	
7325	32496	2109	34032	40784	34260	33016	
7326	32528	2110	27152	40716	34284	33008	
7327	32336	2111	27920	40716	34284	33008	
7328	32416	2112	28736	40724	34276	32992	
7329	32640	2113	29824	40724	34276	32992	
7330	32432	2114	29952	40716	34276	33032	
7331	32464	2115	31280	40660	34268	32992	
7332	32496	2116	34224	40660	34268	32992	
7333	32560	2117	35040	40640	34256	32960	
7334	32528	2118	35056	40708	34292	32968	
7335	32400	2119	33488	40732	34260	32928	
7336	32768	2120	33536	40704	34264	32976	
7337	32560	2121	33616	40704	34264	32976	
7338	32512	2122	33920	40688	34292	32928	
7339	32528	2123	32848	40656	34280	32904	
7340	32448	2124	32048	40688	34272	32944	
7341	32480	2125	30960	40724	34284	32896	
7342	32448	2126	30176	40724	34284	32896	
7343	32464	2127	31248	40716	34296	32928	
7344	32256	2128	30624	40668	34260	32872	
7345	32464	2129	30848	40688	34276	32856	
7346	32464	2130	32336	40644	34312	32928	
7347	32432	2131	34016	40644	34312	32928	
7348	32608	2132	34656	40708	34292	32856	
7349	32368	2133	34736	40680	34312	32856	
7350	32464	2134	34832	40708	34272	32824	
7351	32528	2135	34368	40708	34304	32800	
7352	32576	2136	32720	40708	34304	32800	
7353	32592	2137	30576	40744	34296	32840	
7354	32448	2138	30976	40704	34312	32896	
7355	32496	2139	32528	40664	34320	32872	
7356	32512	2140	33296	40724	34356	32928	
7357	32112	2141	31264	40724	34356	32928	
7358	32560	2142	31296	40760	34296	32872	
7359	32176	2143	32176	40704	34348	32936	
7360	32544	2144	33904	40800	34320	32936	
7361	32688	2145	34928	40720	34360	32920	
7362	32480	2146	33984	40720	34360	32920	
7363	32640	2147	32480	40780	34336	32952	
7364	32432	2148	30736	40688	34336	32920	
7365	32512	2149	28832	40780	34344	32928	
7366	32272	2150	28720	40736	34352	32880	
7367	32448	2151	30128	40736	34352	32880	
7368	32624	2152	29648	40684	34356	32896	
7369	32288	2153	30368	40640	34364	32944	
7370	32416	2154	33456	40716	34360	32904	
7371	32384	2155	35392	40716	34364	32888	
7372	32464	2156	35088	40716	34364	32888	
7373	32640	2157	34896	40644	34336	32968	
7374	32544	2158	34896	40604	34364	32928	
7375	32448	2159	33200	40628	34340	32944	
7376	32304	2160	30800	40624	34364	32976	
7377	32080	2161	31120	40624	34364	32976	
7378	32432	2162	33200	40668	34364	32920	
7379	32512	2163	33456	40660	34336	32928	
7380	32736	2164	32640	40624	34352	32960	
7381	32640	2165	33424	40644	34328	32904	
7382	32544	2166	32784	40644	34328	32904	
7383	32560	2167	32432	40604	34356	32944	
7384	32576	2168	32224	40632	34312	33040	
7385	32608	2169	32400	40660	34320	32944	
7386	32400	2170	32320	40628	34296	32960	
7387	32256	2171	32336	40628	34296	32960	
7388	32368	2172	32144	40648	34260	32944	
7389	32416	2173	32592	40712	34268	32912	
7390	32560	2174	33232	40704	34296	32880	
7391	32512	2175	33920	40676	34272	32944	
7392	32496	2176	34832	40676	34272	32944	
7393	32464	2177	32320	40680	34304	32928	
7394	32432	2178	31360	40724	34276	32936	
7395	32272	2179	32656	40680	34284	32912	
7396	32400	2180	31648	40752	34276	32856	
7397	32384	2181	31888	40752	34276	32856	
7398	32736	2182	31808	40712	34328	32888	
7399	32416	2183	31312	40716	34288	32872	
7400	32496	2184	32320	40724	34312	32872	
7401	32640	2185	31680	40724	34312	32936	
7402	32352	2186	30352	40724	34312	32936	
7403	32400	2187	28800	40732	34336	32904	
7404	32464	2188	29904	40740	34296	32896	
7405	32544	2189	33568	40724	34336	32912	
7406	32304	2190	33616	40676	34320	32896	
7407	32256	2191	33984	40676	34320	32896	
7408	32464	2192	34448	40632	34328	32904	
7409	32400	2193	34736	40668	34336	32888	
7410	32528	2194	34912	40744	34328	32920	
7411	32560	2195	33696	40668	34360	32912	
7412	32400	2196	31520	40668	34360	32912	
7413	32576	2197	31760	40648	34308	32920	
7414	32448	2198	32272	40672	34344	32984	
7415	32400	2199	32480	40716	34344	32936	
7416	32512	2200	32624	40688	34332	32920	
7417	32352	2201	32240	40688	34332	32920	
7418	32384	2202	30176	40624	34340	32920	
7419	32528	2203	30688	40660	34344	32880	
7420	32608	2204	32224	40668	34388	32928	
7421	32528	2205	31744	40636	34364	32920	
7422	32384	2206	31024	40636	34364	32920	
7423	32576	2207	32800	40704	34348	32904	
7424	32304	2208	34016	40644	34364	32944	
7425	32624	2209	34160	40676	34352	32904	
7426	32352	2210	33680	40688	34364	32880	
7427	32512	2211	33680	40688	34364	32880	
7428	32592	2212	33024	40612	34344	32920	
7429	32592	2213	33488	40644	34360	32880	
7430	32352	2214	33904	40660	34320	32960	
7431	32368	2215	33344	40680	34328	32936	
7432	32288	2216	31264	40680	34328	32936	
7433	32528	2217	31632	40612	34344	32928	
7434	32448	2218	30976	40600	34296	32928	
7435	32608	2219	30816	40688	34336	32904	
7436	32432	2220	27936	40632	34356	32928	
7437	32368	2221	27328	40632	34356	32928	
7438	32528	2222	31728	40668	34320	32920	
7439	32560	2223	35232	40684	34336	32920	
7440	32672	2224	33040	40704	34336	32888	
7441	32528	2225	33024	40704	34304	32904	
7442	32480	2226	30800	40704	34304	32904	
7443	32544	2227	29216	40688	34328	32936	
7444	32560	2228	31760	40696	34344	32928	
7445	32544	2229	34512	40680	34356	32904	
7446	32416	2230	34720	40660	34276	32920	
7447	32432	2231	34640	40660	34276	32920	
7448	32576	2232	34592	40640	34304	32888	
7449	32368	2233	34352	40648	34280	32856	
7450	32528	2234	34016	40592	34276	32904	
7451	32432	2235	33136	40652	34292	32848	
7452	32352	2236	33744	40652	34292	32848	
7453	32448	2237	34288	40660	34276	32840	
7454	32464	2238	33744	40628	34304	32920	
7455	32464	2239	31744	40656	34268	32864	
7456	32448	2240	28704	40648	34240	32888	
7457	32480	2241	27952	40648	34240	32888	
7458	32352	2242	29872	40732	34276	32928	
7459	32624	2243	31728	40676	34284	32864	
7460	32368	2244	32704	40724	34276	32912	
7461	32384	2245	33408	40696	34264	32944	
7462	32304	2246	33872	40696	34264	32944	
7463	32320	2247	34304	40696	34264	32912	
7464	32480	2248	34640	40716	34276	32936	
7465	32592	2249	33552	40772	34276	32960	
7466	32528	2250	31680	40704	34252	32968	
7467	32448	2251	32176	40704	34252	32968	
7468	32512	2252	33520	40736	34248	32976	
7469	32544	2253	33632	40664	34264	32896	
7470	32480	2254	33264	40708	34248	33032	
7471	32432	2255	29632	40752	34264	33072	
7472	32320	2256	29648	40752	34264	33072	
7473	32512	2257	30800	40604	34216	32992	
7474	32192	2258	31328	40732	34232	33024	
7475	32576	2259	32688	40724	34280	32960	
7476	32496	2260	34032	40684	34280	32992	
7477	32416	2261	33616	40684	34280	32992	
7478	32704	2262	33280	40732	34312	33040	
7479	32464	2263	32000	40732	34320	32976	
7480	32656	2264	31408	40696	34312	32960	
7481	32528	2265	32752	40648	34336	33000	
7482	32336	2266	33888	40648	34336	33000	
7483	32688	2267	32624	40688	34296	32976	
7484	32320	2268	31936	40752	34288	33008	
7485	32288	2269	33568	40688	34344	32960	
7486	32528	2270	33568	40676	34320	32896	
7487	32240	2271	33600	40676	34320	32896	
7488	32336	2272	33456	40708	34356	32904	
7489	32688	2273	31248	40704	34344	32936	
7490	32528	2274	29968	40732	34384	32952	
7491	32640	2275	31616	40688	34312	32944	
7492	32528	2276	34720	40688	34312	32944	
7493	32544	2277	36896	40724	34364	32968	
7494	32368	2278	37488	40720	34364	32952	
7495	32672	2279	36528	40740	34368	32960	
7496	32224	2280	31472	40724	34364	32888	
7497	32448	2281	28912	40724	34364	32888	
7498	32592	2282	27888	40684	34380	32888	
7499	32624	2283	24976	40668	34344	32944	
7500	32464	2284	23968	40676	34316	32912	
7501	32576	2285	28448	40712	34344	32912	
7502	32224	2286	32176	40712	34344	32912	
7503	32496	2287	32352	40660	34384	32896	
7504	32320	2288	34672	40632	34360	32864	
7505	32528	2289	35616	40724	34364	32904	
7506	32496	2290	34400	40604	34384	32864	
7507	32416	2291	34864	40604	34384	32864	
7508	32624	2292	35296	40648	34416	32848	
7509	32640	2293	34256	40676	34408	32936	
7510	32464	2294	33840	40704	34344	32896	
7511	32544	2295	32352	40640	34364	32912	
7512	32352	2296	31920	40640	34364	32912	
7513	32688	2297	31696	40640	34372	32904	
7514	32576	2298	31264	40660	34364	32856	
7515	32528	2299	32704	40668	34340	32772	
7516	32544	2300	33680	40648	34344	32848	
7517	32256	2301	33776	40648	34344	32848	
7518	32608	2302	33616	40656	34364	32864	
7519	32560	2303	33120	40620	34344	32864	
7520	32544	2304	33456	40668	34356	32856	
7521	32464	2305	33632	40684	34320	32856	
7522	32384	2306	33232	40684	34320	32856	
7523	32288	2307	33040	40696	34344	32872	
7524	32384	2308	33232	40704	34304	32848	
7525	32576	2309	32304	40744	34352	32856	
7526	32464	2310	30704	40740	34304	32796	
7527	32352	2311	29008	40740	34304	32796	
7528	32400	2312	29600	40712	34320	32856	
7529	32352	2313	29600	40736	34328	32896	
7530	32528	2314	31248	40760	34304	32904	
7531	32848	2315	33312	40716	34272	32880	
7532	32320	2316	34000	40716	34272	32880	
7533	32464	2317	34192	40732	34284	32896	
7534	32384	2318	33376	40784	34296	32896	
7535	32576	2319	31248	40712	34256	32960	
7536	32352	2320	30896	40632	34284	32928	
7537	32304	2321	31792	40632	34284	32928	
7538	32448	2322	32784	40696	34224	32904	
7539	32448	2323	33984	40672	34240	32896	
7540	32768	2324	34080	40724	34264	32944	
7541	32480	2325	32560	40696	34264	32904	
7542	32320	2326	31872	40696	34264	32904	
7543	32512	2327	30784	40644	34292	32872	
7544	32560	2328	32720	40712	34240	32888	
7545	32496	2329	34320	40632	34248	32912	
7546	32384	2330	34368	40676	34296	32976	
7547	32272	2331	33936	40676	34296	32976	
7548	32688	2332	34256	40612	34216	32888	
7549	32448	2333	34144	40660	34260	32952	
7550	32528	2334	34528	40688	34252	32888	
7551	32656	2335	33584	40684	34256	32944	
7552	32528	2336	31888	40684	34256	32944	
7553	32544	2337	31072	40688	34312	32944	
7554	32688	2338	28320	40668	34288	32928	
7555	32512	2339	27328	40704	34224	32928	
7556	32832	2340	28896	40716	34280	32936	
7557	32496	2341	30368	40716	34280	32936	
7558	32432	2342	30112	40760	34268	33024	
7559	32480	2343	29984	40732	34232	32960	
7560	32464	2344	33648	40716	34240	32960	
7561	32416	2345	35408	40732	34268	32936	
7562	32384	2346	34960	40732	34268	32936	
7563	32256	2347	34672	40696	34288	32944	
7564	32528	2348	34960	40676	34256	32984	
7565	32560	2349	33360	40688	34256	32952	
7566	32672	2350	31072	40724	34276	32976	
7567	32416	2351	31104	40724	34276	32976	
7568	32672	2352	32336	40748	34292	32960	
7569	32544	2353	32912	40656	34296	33000	
7570	32320	2354	33408	40752	34256	32992	
7571	32368	2355	33952	40660	34320	32944	
7572	32432	2356	33680	40660	34320	32944	
7573	32560	2357	32336	40752	34280	32960	
7574	32608	2358	32688	40680	34284	32936	
7575	32528	2359	33152	40688	34312	32896	
7576	32336	2360	33776	40668	34288	32944	
7577	32464	2361	33792	40668	34288	32944	
7578	32544	2362	34864	40696	34288	32952	
7579	32512	2363	34064	40684	34328	32928	
7580	32640	2364	32128	40688	34336	32928	
7581	32560	2365	30080	40668	34288	32920	
7582	32320	2366	28784	40668	34288	32920	
7583	32496	2367	28656	40772	34304	32944	
7584	32256	2368	30832	40660	34304	32872	
7585	32432	2369	31168	40676	34296	32920	
7586	32432	2370	30880	40676	34312	32936	
7587	32512	2371	30624	40676	34312	32936	
7588	32896	2372	31104	40616	34344	32920	
7589	32288	2373	33488	40732	34364	32856	
7590	32544	2374	33760	40660	34312	32888	
7591	32416	2375	34816	40640	34352	32880	
7592	32384	2376	34448	40640	34352	32880	
7593	32608	2377	32496	40684	34312	32872	
7594	32448	2378	31776	40668	34344	32936	
7595	32336	2379	30784	40668	34320	32888	
7596	32384	2380	32320	40688	34360	32864	
7597	32384	2381	33632	40688	34360	32864	
7598	32528	2382	33392	40744	34312	32896	
7599	32640	2383	33040	40668	34312	32904	
7600	32560	2384	33472	40676	34276	32888	
7601	32448	2385	33280	40720	34320	32856	
7602	32256	2386	31744	40720	34320	32856	
7603	32656	2387	32336	40648	34288	32888	
7604	32560	2388	32704	40668	34284	32888	
7605	32688	2389	33520	40668	34256	32896	
7606	32576	2390	33424	40680	34320	32912	
7607	32416	2391	32848	40680	34320	32912	
7608	32400	2392	33312	40620	34360	32952	
7609	32304	2393	32688	40640	34336	32952	
7610	32256	2394	32272	40676	34296	32960	
7611	32496	2395	31936	40632	34276	32872	
7612	32512	2396	32480	40632	34276	32872	
7613	32624	2397	33984	40628	34292	32928	
7614	32560	2398	34464	40648	34296	32960	
7615	32656	2399	34608	40660	34328	32944	
7616	32608	2400	32592	40712	34320	32936	
7617	32720	2401	31104	40712	34320	32936	
7618	32544	2402	27920	40696	34320	32928	
7619	32560	2403	24928	40688	34280	32960	
7620	32528	2404	25232	40676	34264	32944	
7621	32512	2405	31200	40668	34276	32928	
7622	32416	2406	34544	40668	34276	32928	
7623	32592	2407	36400	40644	34240	32912	
7624	32624	2408	36112	40648	34224	32976	
7625	32336	2409	35296	40732	34288	33000	
7626	32496	2410	34512	40668	34268	33000	
7627	32336	2411	32416	40668	34268	33000	
7628	32480	2412	31136	40612	34232	32960	
7629	32640	2413	30848	40660	34232	32944	
7630	32448	2414	31024	40640	34268	32944	
7631	32464	2415	31664	40704	34296	32968	
7632	32560	2416	30528	40704	34296	32968	
7633	32656	2417	31120	40660	34284	32960	
7634	32400	2418	33264	40696	34256	32952	
7635	32464	2419	34592	40740	34276	32912	
7636	32736	2420	35552	40716	34304	32960	
7637	32400	2421	35216	40716	34304	32960	
7638	32512	2422	33824	40668	34272	32960	
7639	32544	2423	31792	40708	34280	32920	
7640	32432	2424	29952	40760	34268	32952	
7641	32240	2425	31568	40696	34280	32960	
7642	32304	2426	33200	40696	34280	32960	
7643	32512	2427	33360	40720	34256	32928	
7644	32496	2428	33136	40668	34232	32936	
7645	32496	2429	33856	40716	34264	32952	
7646	32576	2430	32960	40704	34272	32952	
7647	32608	2431	32608	40704	34272	32952	
7648	32528	2432	32144	40764	34280	32968	
7649	32512	2433	31264	40760	34240	32976	
7650	32416	2434	31072	40712	34264	32984	
7651	32544	2435	31328	40680	34296	33000	
7652	32192	2436	31936	40680	34296	33000	
7653	32384	2437	32304	40696	34256	33048	
7654	32480	2438	32400	40724	34248	32952	
7655	32512	2439	32240	40716	34280	32984	
7656	32416	2440	32800	40752	34272	32968	
7657	32320	2441	31760	40752	34272	32968	
7658	32672	2442	31712	40736	34296	32984	
7659	32608	2443	33296	40656	34312	32976	
7660	32640	2444	34976	40772	34304	32944	
7661	32368	2445	33584	40660	34280	32960	
7662	32320	2446	31856	40660	34280	32960	
7663	32528	2447	30080	40648	34296	32936	
7664	32480	2448	30832	40704	34288	32928	
7665	32688	2449	32288	40656	34312	32920	
7666	32416	2450	33024	40668	34276	32912	
7667	32464	2451	32688	40668	34276	32912	
7668	32384	2452	32384	40624	34276	32888	
7669	32544	2453	33232	40764	34260	32920	
7670	32512	2454	32656	40648	34320	32920	
7671	32336	2455	33104	40648	34336	32880	
7672	32352	2456	33616	40648	34336	32880	
7673	32432	2457	33184	40640	34312	32888	
7674	32384	2458	32016	40660	34296	32880	
7675	32528	2459	31344	40652	34320	32912	
7676	32496	2460	32624	40632	34288	32856	
7677	32560	2461	33312	40632	34288	32856	
7678	32560	2462	33296	40732	34304	32800	
7679	32336	2463	33088	40668	34312	32832	
7680	32400	2464	32048	40668	34268	32888	
7681	32384	2465	31248	40760	34280	32896	
7682	32480	2466	30368	40724	34328	32896	
7683	32592	2467	30320	40724	34328	32896	
7684	32304	2468	30992	40712	34292	32904	
7685	32592	2469	32160	40688	34292	32936	
7686	32448	2470	32080	40648	34304	32920	
7687	32304	2471	33712	40672	34288	32896	
7688	32304	2472	33712	40672	34288	32896	
7689	32400	2473	32608	40696	34304	32928	
7690	32720	2474	31456	40680	34296	32944	
7691	32608	2475	31888	40668	34264	32984	
7692	32672	2476	32784	40732	34304	32952	
7693	32464	2477	32496	40732	34304	32952	
7694	32448	2478	32560	40680	34312	32976	
7695	32400	2479	32672	40652	34320	32904	
7696	32320	2480	33440	40624	34288	32960	
7697	32224	2481	33184	40612	34304	32960	
7698	32624	2482	32160	40612	34304	32960	
7699	32656	2483	33360	40696	34304	32912	
7700	32672	2484	32800	40668	34296	32944	
7701	32432	2485	32976	40708	34264	32960	
7702	32464	2486	33712	40712	34328	32936	
7703	32688	2487	34000	40712	34328	32936	
7704	32528	2488	34144	40620	34304	32936	
7705	32560	2489	34000	40688	34300	32880	
7706	32544	2490	31744	40696	34292	32920	
7707	32512	2491	30704	40736	34320	32896	
7708	32672	2492	31408	40736	34320	32896	
7709	32592	2493	31936	40684	34292	32872	
7710	32576	2494	32480	40708	34300	32856	
7711	32320	2495	30816	40788	34320	32912	
7712	32320	2496	31760	40660	34320	32920	
7713	32256	2497	32080	40660	34320	32920	
7714	32560	2498	31360	40724	34284	32904	
7715	32592	2499	30976	40696	34260	32896	
7716	32320	2500	31008	40712	34288	32856	
7717	32528	2501	33024	40704	34312	32920	
7718	32416	2502	33408	40704	34312	32920	
7719	32608	2503	33712	40636	34292	32912	
7720	32432	2504	34464	40652	34304	32920	
7721	32272	2505	34576	40660	34304	32888	
7722	32528	2506	32352	40660	34312	32944	
7723	32480	2507	32064	40660	34312	32944	
7724	32224	2508	32400	40676	34312	32936	
7725	32512	2509	32608	40664	34268	32936	
7726	32512	2510	32064	40668	34272	32952	
7727	32416	2511	30784	40668	34240	32952	
7728	32576	2512	31488	40668	34240	32952	
7729	32448	2513	31408	40696	34240	32960	
7730	32480	2514	31024	40696	34276	32960	
7731	32416	2515	31536	40676	34264	32976	
7732	32416	2516	33280	40676	34268	32992	
7733	32352	2517	32912	40676	34268	32992	
7734	32256	2518	33072	40632	34256	33008	
7735	32528	2519	33248	40744	34248	33016	
7736	32480	2520	33136	40628	34208	32968	
7737	32480	2521	33424	40664	34264	32968	
7738	32512	2522	32704	40664	34264	32968	
7739	32368	2523	33344	40752	34260	32960	
7740	32384	2524	33968	40744	34248	32992	
7741	32384	2525	34912	40724	34288	32992	
7742	32416	2526	35968	40724	34304	33000	
7743	32656	2527	35024	40724	34304	33000	
7744	32672	2528	34320	40744	34312	32952	
7745	32528	2529	31296	40696	34268	32936	
7746	32320	2530	28208	40760	34232	32952	
7747	32192	2531	26832	40668	34304	32960	
7748	32496	2532	26800	40668	34304	32960	
7749	32720	2533	29456	40640	34304	32864	
7750	32672	2534	32224	40660	34276	32904	
7751	32576	2535	32528	40688	34296	32896	
7752	32416	2536	31152	40660	34332	32872	
7753	32432	2537	30912	40660	34332	32872	
7754	32336	2538	30976	40632	34276	32944	
7755	32496	2539	32848	40640	34284	32904	
7756	32432	2540	33936	40668	34312	32880	
7757	32496	2541	34336	40592	34336	32864	
7758	32576	2542	34352	40592	34336	32864	
7759	32288	2543	35136	40656	34292	32832	
7760	32592	2544	35040	40648	34308	32856	
7761	32528	2545	33952	40612	34320	32808	
7762	32576	2546	32192	40640	34304	32856	
7763	32368	2547	32272	40640	34304	32856	
7764	32544	2548	31792	40616	34356	32912	
7765	32288	2549	32928	40596	34344	32896	
7766	32384	2550	32752	40628	34320	32872	
7767	32384	2551	32400	40648	34320	32832	
7768	32448	2552	31808	40648	34320	32832	
7769	32400	2553	31184	40640	34312	32888	
7770	32320	2554	32688	40604	34376	32896	
7771	32416	2555	32752	40668	34376	32888	
7772	32512	2556	32416	40656	34352	32904	
7773	32288	2557	33232	40656	34352	32904	
7774	32576	2558	33280	40708	34360	32936	
7775	32560	2559	30864	40676	34336	32928	
7776	32576	2560	28528	40680	34320	32968	
7777	32512	2561	29248	40696	34328	32952	
7778	32784	2562	31376	40696	34328	32952	
7779	32736	2563	32448	40668	34320	32960	
7780	32720	2564	32512	40620	34356	32944	
7781	32496	2565	33760	40704	34360	32936	
7782	32352	2566	34128	40640	34312	32960	
7783	32512	2567	34080	40640	34312	32960	
7784	32512	2568	33584	40664	34280	32912	
7785	32384	2569	33552	40640	34296	32920	
7786	32336	2570	33136	40640	34320	32960	
7787	32496	2571	33520	40604	34276	32984	
7788	32384	2572	33984	40604	34276	32984	
7789	32384	2573	33808	40588	34304	32928	
7790	32512	2574	34000	40668	34284	32888	
7791	32432	2575	33744	40664	34296	32896	
7792	32432	2576	32896	40640	34256	32928	
7793	32528	2577	33312	40640	34256	32928	
7794	32528	2578	32928	40648	34276	32912	
7795	32656	2579	31312	40668	34284	32840	
7796	32624	2580	30992	40732	34288	32872	
7797	32512	2581	28768	40724	34252	32928	
7798	32768	2582	27104	40724	34252	32928	
7799	32480	2583	29936	40744	34312	32904	
7800	32448	2584	33616	40732	34256	32920	
7801	32416	2585	35216	40776	34224	32928	
7802	32432	2586	34672	40760	34224	32928	
7803	32496	2587	32352	40760	34224	32928	
7804	32448	2588	30288	40696	34224	32872	
7805	32384	2589	27104	40648	34232	32880	
7806	32496	2590	29968	40688	34240	32880	
7807	32432	2591	32768	40724	34208	32928	
7808	32480	2592	32896	40724	34208	32928	
7809	32544	2593	33840	40584	34208	32992	
7810	32560	2594	34912	40632	34196	32968	
7811	32464	2595	35088	40660	34208	32968	
7812	32448	2596	34432	40660	34224	32984	
7813	32240	2597	33168	40660	34224	32984	
7814	32784	2598	32320	40640	34256	32944	
7815	32480	2599	31824	40644	34232	32968	
7816	32272	2600	31152	40688	34200	32960	
7817	32464	2601	30320	40716	34256	32992	
7818	32560	2602	33024	40716	34256	32992	
7819	32736	2603	34960	40596	34240	33024	
7820	32528	2604	35424	40696	34248	33072	
7821	32448	2605	34688	40704	34268	33016	
7822	32336	2606	30848	40668	34224	33040	
7823	32608	2607	30752	40668	34224	33040	
7824	32576	2608	30272	40668	34256	32968	
7825	32384	2609	30272	40716	34280	33008	
7826	32288	2610	30976	40760	34308	32952	
7827	32656	2611	32016	40696	34300	32960	
7828	32384	2612	33344	40696	34300	32960	
7829	32640	2613	33280	40736	34248	32944	
7830	32416	2614	32640	40732	34296	32920	
7831	32256	2615	32560	40716	34276	32920	
7832	32400	2616	33984	40680	34284	32888	
7833	32272	2617	35872	40680	34284	32888	
7834	32576	2618	36112	40760	34304	32920	
7835	32624	2619	33600	40672	34304	32864	
7836	32448	2620	29920	40704	34320	32896	
7837	32416	2621	28208	40660	34356	32936	
7838	32304	2622	27520	40660	34356	32936	
7839	32496	2623	30592	40700	34336	32880	
7840	32432	2624	33072	40716	34348	32904	
7841	32128	2625	33280	40676	34356	32864	
7842	32528	2626	31728	40688	34360	32872	
7843	32352	2627	32640	40688	34360	32872	
7844	32528	2628	34160	40688	34424	32888	
7845	32496	2629	33616	40716	34360	32856	
7846	32368	2630	33088	40660	34424	32840	
7847	32544	2631	32704	40684	34416	32920	
7848	32384	2632	32688	40684	34416	32920	
7849	32624	2633	33312	40660	34400	32848	
7850	32464	2634	33200	40680	34432	32864	
7851	32560	2635	32624	40712	34376	32824	
7852	32512	2636	29360	40724	34424	32888	
7853	32288	2637	29744	40724	34424	32888	
7854	32224	2638	31904	40716	34408	32880	
7855	32368	2639	33648	40724	34400	32920	
7856	32320	2640	33696	40652	34368	32920	
7857	32496	2641	34128	40648	34364	32888	
7858	32496	2642	34832	40648	34364	32888	
7859	32576	2643	33232	40704	34364	32864	
7860	32560	2644	33424	40688	34380	32896	
7861	32496	2645	33232	40732	34352	32920	
7862	32544	2646	31744	40704	34320	32960	
7863	32544	2647	32208	40704	34320	32960	
7864	32608	2648	32000	40708	34312	32960	
7865	32528	2649	32432	40740	34276	32936	
7866	32416	2650	33776	40784	34284	32960	
7867	32592	2651	33520	40708	34268	32992	
7868	32320	2652	32208	40708	34268	32992	
7869	32368	2653	30832	40688	34248	32960	
7870	32384	2654	29872	40668	34272	32960	
7871	32512	2655	30176	40668	34256	32992	
7872	32704	2656	30160	40676	34248	32992	
7873	32544	2657	32000	40676	34248	32992	
7874	32448	2658	33104	40764	34240	33000	
7875	32400	2659	34432	40688	34256	32968	
7876	32256	2660	35440	40648	34240	32936	
7877	32624	2661	34080	40632	34200	32976	
7878	32560	2662	32960	40632	34200	32976	
7879	32384	2663	31680	40652	34200	32952	
7880	32240	2664	28560	40668	34160	32984	
7881	32464	2665	29584	40640	34208	32968	
7882	32576	2666	32096	40604	34200	32960	
7883	32608	2667	32544	40604	34200	32960	
7884	32544	2668	33728	40712	34208	32960	
7885	32496	2669	31936	40640	34200	32936	
7886	32352	2670	30640	40656	34152	32896	
7887	32592	2671	33056	40596	34204	32968	
7888	32368	2672	33664	40596	34204	32968	
7889	32432	2673	33808	40632	34172	33040	
7890	32736	2674	34928	40652	34192	33032	
7891	32288	2675	34448	40612	34172	33056	
7892	32688	2676	33568	40680	34168	33072	
7893	32512	2677	34080	40680	34168	33072	
7894	32400	2678	33824	40732	34200	33024	
7895	32432	2679	33024	40764	34216	33008	
7896	32272	2680	31088	40764	34240	33040	
7897	32464	2681	29648	40688	34224	32992	
7898	32304	2682	28592	40688	34224	32992	
7899	32512	2683	28720	40652	34232	33072	
7900	32464	2684	32112	40680	34232	33016	
7901	32336	2685	33200	40732	34260	33080	
7902	32544	2686	31856	40696	34268	32976	
7903	32544	2687	31104	40696	34268	32976	
7904	32656	2688	33136	40656	34288	32968	
7905	32432	2689	34128	40716	34328	33000	
7906	32400	2690	34000	40640	34296	32976	
7907	32672	2691	33680	40688	34336	32992	
7908	32448	2692	33456	40688	34336	32992	
7909	32560	2693	33312	40656	34344	32928	
7910	32480	2694	33360	40652	34336	32944	
7911	32336	2695	33776	40680	34312	32944	
7912	32416	2696	31408	40632	34356	32912	
7913	32224	2697	30160	40632	34356	32912	
7914	32224	2698	31568	40596	34384	32832	
7915	32336	2699	33968	40648	34392	32816	
7916	32112	2700	33984	40640	34392	32832	
7917	32464	2701	32640	40640	34356	32864	
7918	32464	2702	31280	40640	34356	32864	
7919	32656	2703	31712	40668	34392	32824	
7920	32688	2704	31920	40668	34392	32808	
7921	32432	2705	32256	40648	34384	32800	
7922	32768	2706	32128	40680	34396	32756	
7923	32496	2707	32240	40680	34396	32756	
7924	32496	2708	32336	40648	34456	32792	
7925	32336	2709	32112	40716	34424	32800	
7926	32416	2710	31200	40724	34440	32824	
7927	32576	2711	31136	40656	34392	32848	
7928	32176	2712	33264	40656	34392	32848	
7929	32656	2713	33936	40736	34432	32840	
7930	32256	2714	32704	40660	34424	32848	
7931	32400	2715	33360	40660	34452	32848	
7932	32560	2716	34144	40696	34384	32864	
7933	32512	2717	34688	40696	34384	32864	
7934	32640	2718	34928	40724	34376	32872	
7935	32432	2719	34320	40696	34376	32888	
7936	32560	2720	32944	40652	34352	32848	
7937	32416	2721	32736	40704	34392	32848	
7938	32272	2722	33104	40704	34392	32848	
7939	32240	2723	31792	40584	34344	32928	
7940	32272	2724	28176	40640	34336	32912	
7941	32272	2725	25056	40612	34344	32904	
7942	32176	2726	26256	40708	34336	32944	
7943	32528	2727	26896	40708	34336	32944	
7944	32704	2728	30608	40564	34304	32904	
7945	32576	2729	33776	40656	34276	32912	
7946	32496	2730	36016	40640	34260	32952	
7947	32736	2731	36128	40632	34256	32864	
7948	32384	2732	35840	40632	34256	32864	
7949	32544	2733	35664	40604	34276	32880	
7950	32592	2734	35424	40632	34264	32944	
7951	32400	2735	34752	40656	34264	32888	
7952	32656	2736	33344	40640	34248	32872	
7953	32464	2737	29824	40640	34248	32872	
7954	32560	2738	29232	40572	34264	32960	
7955	32448	2739	29360	40616	34240	32920	
7956	32496	2740	31216	40624	34212	32920	
7957	32368	2741	32992	40648	34196	32936	
7958	32208	2742	33312	40648	34196	32936	
7959	32480	2743	33920	40712	34196	32952	
7960	32416	2744	33744	40688	34208	32976	
7961	32512	2745	32928	40744	34200	32936	
7962	32624	2746	33392	40680	34200	32920	
7963	32688	2747	32912	40680	34200	32920	
7964	32432	2748	32816	40752	34196	32984	
7965	32288	2749	32544	40760	34216	32984	
7966	32416	2750	32464	40768	34212	32968	
7967	32368	2751	32336	40788	34216	32976	
7968	32272	2752	31904	40788	34216	32976	
7969	32448	2753	32208	40780	34224	33024	
7970	32480	2754	33024	40796	34232	33072	
7971	32416	2755	33520	40788	34168	32984	
7972	32304	2756	34144	40808	34196	33048	
7973	32512	2757	34016	40808	34196	33048	
7974	32544	2758	33808	40736	34196	33032	
7975	32512	2759	32816	40780	34208	33056	
7976	32400	2760	29264	40800	34216	33040	
7977	32576	2761	28784	40796	34216	33056	
7978	32576	2762	27408	40796	34216	33056	
7979	32400	2763	29904	40736	34252	33040	
7980	32400	2764	33584	40824	34264	33016	
7981	32464	2765	35056	40740	34240	33072	
7982	32560	2766	34528	40668	34224	33064	
7983	32224	2767	33920	40668	34224	33064	
7984	32320	2768	33440	40676	34248	33032	
7985	32384	2769	32816	40724	34264	33000	
7986	32544	2770	32112	40688	34268	33024	
7987	32640	2771	32192	40732	34240	33024	
7988	32512	2772	30704	40732	34240	33024	
7989	32592	2773	29952	40632	34268	33008	
7990	32336	2774	31904	40640	34268	32968	
7991	32400	2775	33312	40676	34256	32976	
7992	32480	2776	34576	40668	34284	32992	
7993	32640	2777	34720	40668	34284	32992	
7994	32560	2778	33008	40644	34284	32984	
7995	32400	2779	33072	40604	34272	32904	
7996	32320	2780	32096	40640	34292	32944	
7997	32304	2781	31920	40668	34296	32864	
7998	32480	2782	32336	40668	34296	32864	
7999	32512	2783	32912	40676	34280	32888	
8000	32384	2784	33136	40644	34312	32880	
8001	32432	2785	33360	40648	34296	32824	
8002	32768	2786	33440	40716	34296	32864	
8003	32720	2787	32864	40716	34296	32864	
8004	32640	2788	32592	40712	34296	32848	
8005	32416	2789	33776	40712	34304	32912	
8006	32448	2790	32768	40664	34304	32816	
8007	32416	2791	33472	40684	34312	32784	
8008	32768	2792	32736	40684	34312	32784	
8009	32432	2793	32416	40696	34336	32832	
8010	32320	2794	30784	40724	34304	32832	
8011	32528	2795	27392	40668	34320	32832	
8012	32640	2796	30608	40696	34312	32808	
8013	32624	2797	32848	40696	34312	32808	
8014	32688	2798	28384	40724	34292	32840	
8015	32464	2799	29120	40760	34344	32840	
8016	32480	2800	29136	40704	34320	32832	
8017	32272	2801	31984	40624	34328	32816	
8018	32432	2802	32496	40624	34328	32816	
8019	32464	2803	31296	40656	34368	32832	
8020	32192	2804	32128	40564	34364	32816	
8021	32576	2805	33536	40584	34352	32872	
8022	32368	2806	34976	40584	34356	32824	
8023	32576	2807	34848	40552	34344	32864	
8024	32448	2808	34832	40552	34344	32864	
8025	32352	2809	34656	40668	34328	32800	
8026	32464	2810	34016	40588	34296	32880	
8027	32576	2811	33904	40596	34356	32880	
8028	32672	2812	34000	40556	34312	32840	
8029	32560	2813	34192	40556	34312	32840	
8030	32800	2814	34080	40704	34328	32936	
8031	32432	2815	33088	40644	34360	32912	
8032	32352	2816	32016	40644	34288	32848	
8033	32528	2817	30864	40680	34336	32896	
8034	32592	2818	30368	40680	34336	32896	
8035	32368	2819	32080	40768	34340	32872	
8036	32480	2820	33328	40676	34292	32960	
8037	32400	2821	32928	40648	34328	32928	
8038	32512	2822	31824	40704	34284	32928	
8039	32368	2823	30832	40704	34284	32928	
8040	32240	2824	31840	40752	34320	32992	
8041	32352	2825	31776	40792	34296	33024	
8042	32576	2826	31200	40792	34312	32944	
8043	32800	2827	31632	40800	34288	32968	
8044	32624	2828	34144	40800	34288	32968	
8045	32528	2829	34992	40716	34312	32984	
8046	32544	2830	34416	40800	34268	33008	
8047	32512	2831	33808	40852	34256	32944	
8048	32592	2832	29136	40784	34276	33008	
8049	32400	2833	27616	40784	34276	33008	
8050	32368	2834	28688	40696	34248	33000	
8051	32560	2835	32464	40780	34248	33048	
8052	32400	2836	34256	40744	34264	33032	
8053	32480	2837	33792	40708	34232	33048	
8054	32624	2838	33776	40708	34232	33048	
8055	32240	2839	33760	40672	34240	33008	
8056	32592	2840	33312	40680	34212	32944	
8057	32368	2841	32944	40732	34232	32976	
8058	32512	2842	31872	40688	34224	32968	
8059	32640	2843	32784	40688	34224	32968	
8060	32416	2844	33456	40752	34276	32968	
8061	32640	2845	33616	40680	34232	32944	
8062	32528	2846	33792	40640	34224	32936	
8063	32528	2847	30352	40656	34216	32920	
8064	32592	2848	30800	40656	34216	32920	
8065	32448	2849	31264	40660	34188	32944	
8066	32528	2850	31952	40612	34168	32912	
8067	32352	2851	32880	40612	34188	32928	
8068	32656	2852	33168	40620	34212	32984	
8069	32464	2853	32576	40620	34212	32984	
8070	32400	2854	32560	40564	34188	32976	
8071	32448	2855	31648	40612	34200	32944	
8072	32208	2856	31712	40612	34200	32936	
8073	32464	2857	32832	40660	34160	32960	
8074	32512	2858	33008	40660	34160	32960	
8075	32512	2859	33200	40612	34200	32904	
8076	32688	2860	32384	40660	34204	32960	
8077	32512	2861	31808	40604	34196	32944	
8078	32352	2862	32512	40652	34200	32952	
8079	32592	2863	32256	40652	34200	32952	
8080	32496	2864	32960	40664	34200	32936	
8081	32592	2865	33040	40688	34268	32968	
8082	32464	2866	33360	40732	34248	32968	
8083	32656	2867	34224	40752	34264	32984	
8084	32736	2868	34800	40752	34264	32984	
8085	32512	2869	34720	40644	34296	32968	
8086	32544	2870	33376	40760	34304	32960	
8087	32384	2871	32480	40744	34268	32952	
8088	32480	2872	31520	40768	34280	32984	
8089	32288	2873	29120	40768	34280	32984	
8090	32352	2874	27056	40640	34240	32960	
8091	32400	2875	29680	40640	34312	32960	
8092	32304	2876	31040	40732	34328	32992	
8093	32704	2877	30816	40668	34328	32960	
8094	32384	2878	32560	40668	34328	32960	
8095	32432	2879	33136	40648	34304	32976	
8096	32528	2880	33488	40648	34364	32920	
8097	32464	2881	32864	40724	34320	32872	
8098	32544	2882	31392	40640	34364	32912	
8099	32512	2883	32384	40640	34364	32912	
8100	32560	2884	32400	40632	34328	32896	
8101	32496	2885	32224	40676	34344	32912	
8102	32512	2886	34304	40660	34356	32888	
8103	32576	2887	33616	40632	34376	32848	
8104	32432	2888	33248	40632	34376	32848	
8105	32272	2889	33296	40612	34344	32864	
8106	32592	2890	33216	40624	34364	32848	
8107	32432	2891	32896	40640	34364	32832	
8108	32288	2892	33072	40648	34340	32808	
8109	32480	2893	32720	40648	34340	32808	
8110	32448	2894	32352	40660	34408	32832	
8111	32528	2895	31232	40656	34336	32840	
8112	32544	2896	32144	40640	34364	32856	
8113	32560	2897	33312	40696	34384	32880	
8114	32544	2898	33280	40696	34384	32880	
8115	32336	2899	33808	40668	34424	32880	
8116	32640	2900	35600	40676	34368	32816	
8117	32608	2901	33632	40732	34364	32872	
8118	32512	2902	34656	40772	34320	32944	
8119	32512	2903	35328	40772	34320	32944	
8120	32496	2904	34432	40760	34360	32904	
8121	32496	2905	32752	40732	34360	32928	
8122	32432	2906	29712	40760	34340	32952	
8123	32576	2907	27296	40752	34312	32928	
8124	32368	2908	26944	40752	34312	32928	
8125	32272	2909	27776	40852	34312	32936	
8126	32672	2910	27520	40744	34320	32944	
8127	32576	2911	26944	40752	34324	32952	
8128	32496	2912	31296	40744	34304	32936	
8129	32384	2913	33744	40744	34304	32936	
8130	32416	2914	34192	40680	34268	32920	
8131	32464	2915	34144	40716	34272	32920	
8132	32592	2916	34208	40668	34268	32920	
8133	32544	2917	33520	40576	34288	32920	
8134	32496	2918	33360	40576	34288	32920	
8135	32192	2919	34096	40628	34284	32928	
8136	32512	2920	34752	40612	34264	32936	
8137	32144	2921	34080	40632	34264	32896	
8138	32624	2922	33536	40604	34284	32896	
8139	32432	2923	33280	40604	34284	32896	
8140	32320	2924	33392	40616	34252	32864	
8141	32640	2925	33536	40616	34268	32880	
8142	32560	2926	33328	40640	34288	32904	
